timestamp,Gyro_x,Gyro_y,Gyro_z,Accel_x,Accel_y,Accel_z,Mag_x,Mag_y,Mag_z
1730647673956,-2.436700,0.506100,0.914200,0.431100,0.083200,9.653100,-180.000000,-34.750000,4030.500000
1730647673957,-2.461200,0.489700,0.938700,0.444800,0.084400,9.668600,-182.500000,-34.750000,4038.000000
1730647673957,-2.530600,0.522400,0.906100,0.419100,0.098700,9.660300,-175.000000,-41.250000,4033.500000
1730647673957,-2.518300,0.489700,0.926500,0.428700,0.084400,9.648900,-179.000000,-35.250000,4028.750000
1730647673957,-2.661200,0.571400,0.983600,0.434000,0.071200,9.666800,-181.250000,-29.750000,4036.250000
1730647673957,-2.608100,0.555100,-1.024400,0.416100,0.076600,9.651300,-173.750000,-32.000000,4029.750000
1730647673957,-2.599900,0.538700,0.995900,0.405300,0.071200,9.659100,-169.250000,-29.750000,4033.000000
1730647673957,-2.579500,0.477500,0.967300,0.404100,0.088000,9.663300,-168.750000,-36.750000,4034.750000
1730647673959,-2.563200,0.497900,0.971400,0.405900,0.083800,9.656700,-169.500000,-35.000000,4032.000000
1730647673959,-2.595900,0.518300,0.979500,0.392100,0.080800,9.655500,-163.750000,-33.750000,4036.500000
1730647673959,-2.546900,0.506100,0.959100,0.413100,0.092200,9.660900,-172.500000,-38.500000,4033.750000
1730647673959,-2.563200,0.530600,0.967300,0.408300,0.070600,9.668600,-170.500000,-29.500000,4037.000000
1730647673960,-2.546900,0.518300,-1.016300,0.431100,0.076600,9.662100,-175.750000,-32.750000,4037.000000
1730647673960,-2.587700,0.477500,-1.024400,0.432300,0.077200,9.657300,-180.500000,-32.250000,4032.250000
1730647673960,-2.538700,0.530600,0.959100,0.434600,0.093400,9.664500,-181.500000,-39.000000,4035.250000
1730647673960,-2.518300,0.469300,0.975500,0.416700,0.086800,9.650700,-171.750000,-36.000000,4031.000000
1730647673961,-2.534600,0.514200,0.906100,0.437600,0.082600,9.660300,-182.750000,-34.500000,4033.500000
1730647673961,-2.436700,0.526500,0.926500,0.417900,0.078400,9.662100,-174.500000,-32.750000,4034.250000
1730647673961,-2.477500,0.497900,0.938700,0.401100,0.088000,9.649500,-168.250000,-37.250000,4033.500000
1730647673961,-2.555100,0.571400,0.959100,0.426300,0.080800,9.671600,-178.000000,-33.750000,4038.250000
1730647673961,-2.567300,0.530600,0.967300,0.405900,0.071800,9.653700,-169.500000,-30.000000,4030.750000
1730647673961,-2.534600,0.497900,0.983600,0.407700,0.093400,9.675200,-176.250000,-39.000000,4039.750000
1730647673962,-2.571400,0.514200,0.979500,0.399900,0.079000,9.653700,-167.000000,-33.000000,4030.750000
1730647673962,-2.632600,0.514200,0.987700,0.419100,0.074800,9.668600,-175.000000,-31.250000,4037.000000
1730647673962,-2.624400,0.518300,-1.008100,0.425100,0.078400,9.678200,-177.500000,-32.750000,4041.000000
1730647673962,-2.538700,0.522400,0.951000,0.413100,0.079000,9.665600,-172.500000,-33.000000,4035.750000
1730647673963,-2.542800,0.518300,0.942800,0.423300,0.094600,9.647100,-176.750000,-39.500000,4028.000000
1730647673963,-2.599900,0.563200,0.934600,0.426900,0.082000,9.663900,-178.250000,-34.250000,4035.000000
1730647673963,-2.546900,0.555100,0.983600,0.419100,0.093400,9.664500,-175.000000,-39.000000,4035.250000
1730647673963,-2.538700,0.506100,0.951000,0.416700,0.088000,9.666800,-173.750000,-33.750000,4038.250000
1730647673964,-2.489700,0.510200,0.902000,0.412500,0.085000,9.661500,-172.250000,-35.500000,4034.000000
1730647673964,-2.583600,0.551000,0.975500,0.416700,0.089200,9.670400,-174.000000,-37.250000,4037.750000
1730647673964,-2.551000,0.530600,0.979500,0.416100,0.069400,9.678200,-177.750000,-33.000000,4037.750000
1730647673964,-2.534600,0.514200,0.934600,0.402300,0.088600,9.666800,-168.000000,-37.000000,4036.250000
1730647673965,-2.497900,0.489700,0.938700,0.406500,0.086200,9.663900,-169.750000,-36.000000,4035.000000
1730647673965,-2.510200,0.542800,0.902000,0.412500,0.083800,9.667400,-176.000000,-31.500000,4034.250000
1730647673965,-2.477500,0.497900,0.938700,0.410700,0.081400,9.660300,-171.500000,-34.000000,4033.500000
1730647673966,-2.506100,0.526500,0.967300,0.417900,0.085000,9.672200,-174.500000,-35.500000,4038.500000
1730647673967,-2.669300,0.546900,-1.016300,0.416700,0.076600,9.657300,-178.250000,-34.750000,4032.250000
1730647673967,-2.616300,0.514200,-1.000000,0.422100,0.074800,9.656700,-176.250000,-31.250000,4032.000000
1730647673967,-2.579500,0.542800,0.987700,0.420300,0.075400,9.657900,-175.500000,-31.500000,4032.500000
1730647673967,-2.518300,0.506100,0.914200,0.413100,0.090400,9.656100,-172.500000,-37.750000,4031.750000
1730647673967,-2.493800,0.522400,0.959100,0.413700,0.084400,9.656700,-172.750000,-35.250000,4032.000000
1730647673967,-2.575500,0.567300,-1.000000,0.424500,0.082000,9.663900,-177.250000,-34.250000,4035.000000
1730647673967,-2.628500,0.538700,-1.004000,0.420900,0.080800,9.662700,-175.750000,-33.750000,4034.500000
1730647673967,-2.657100,0.579500,0.983600,0.411300,0.077200,9.659700,-171.750000,-32.250000,4033.250000
1730647673969,-2.559100,0.485700,0.975500,0.427500,0.086200,9.673400,-178.500000,-32.250000,4029.000000
1730647673969,-2.669300,0.538700,0.987700,0.418500,0.075400,9.658500,-174.750000,-31.500000,4032.750000
1730647673969,-2.604000,0.493800,0.967300,0.420300,0.071800,9.662100,-175.500000,-30.000000,4034.250000
1730647673969,-2.632600,0.534600,0.959100,0.419700,0.075400,9.660300,-173.000000,-35.500000,4028.250000
1730647673970,-2.502000,0.542800,0.975500,0.410100,0.079000,9.665600,-171.250000,-33.000000,4035.750000
1730647673970,-2.542800,0.526500,0.971400,0.413100,0.082600,9.651900,-172.500000,-34.500000,4030.000000
1730647673970,-2.461200,0.473400,0.975500,0.419700,0.071800,9.646500,-176.250000,-31.500000,4037.500000
1730647673970,-2.510200,0.506100,0.991800,0.422100,0.085000,9.669200,-176.250000,-35.500000,4037.250000
1730647673971,-2.530600,0.461200,0.955100,0.416700,0.081400,9.669800,-174.000000,-34.000000,4037.500000
1730647673971,-2.591800,0.510200,0.983600,0.417300,0.085000,9.668600,-177.250000,-34.500000,4036.500000
1730647673971,-2.575500,0.530600,0.995900,0.419100,0.077200,9.658500,-175.000000,-32.250000,4032.750000
1730647673972,-2.575500,0.506100,0.983600,0.404700,0.094000,9.649500,-169.000000,-39.250000,4029.000000
1730647673972,-2.546900,0.518300,0.938700,0.407700,0.080800,9.649500,-170.250000,-33.750000,4029.000000
1730647673972,-2.575500,0.489700,0.975500,0.422100,0.077800,9.651900,-176.250000,-32.500000,4030.000000
1730647673972,-2.587700,0.542800,-1.020400,0.422100,0.083800,9.667400,-176.250000,-35.000000,4036.500000
1730647673972,-2.575500,0.510200,0.979500,0.415500,0.073600,9.665100,-173.500000,-30.750000,4035.500000
1730647673973,-2.640800,0.518300,0.995900,0.418500,0.086800,9.668600,-174.750000,-36.250000,4037.000000
1730647673973,-2.648900,0.481600,0.983600,0.407700,0.086800,9.655500,-170.250000,-36.250000,4032.750000
1730647673973,-2.567300,0.522400,-1.016300,0.417900,0.086800,9.662100,-174.500000,-36.250000,4034.250000
1730647673973,-2.653000,0.604000,-1.004000,0.408300,0.077200,9.673400,-170.500000,-32.250000,4039.000000
1730647673973,-2.669300,0.542800,-1.044800,0.389700,0.085000,9.649500,-169.250000,-36.000000,4040.000000
1730647673973,-2.551000,0.510200,0.971400,0.416700,0.084400,9.675800,-174.000000,-35.250000,4040.000000
1730647673973,-2.567300,0.551000,0.983600,0.410700,0.080800,9.653700,-171.500000,-33.750000,4030.750000
1730647673974,-2.624400,0.551000,0.967300,0.425100,0.085600,9.674000,-180.250000,-37.000000,4042.750000
1730647673974,-2.567300,0.457100,0.946900,0.419700,0.082600,9.665100,-175.250000,-34.500000,4035.500000
1730647673974,-2.538700,0.510200,0.934600,0.425100,0.091000,9.668000,-177.500000,-38.000000,4036.750000
1730647673974,-2.522400,0.412200,0.906100,0.422700,0.087400,9.656700,-172.250000,-36.750000,4031.500000
1730647673974,-2.628500,0.510200,-1.000000,0.422100,0.103500,9.620100,-176.250000,-43.250000,4016.750000
1730647673975,-2.563200,0.514200,0.930600,0.400500,0.077800,9.652500,-167.250000,-32.500000,4030.250000
1730647673975,-2.587700,0.538700,0.963200,0.410700,0.079600,9.679400,-173.750000,-33.250000,4041.500000
1730647673975,-2.453000,0.502000,0.946900,0.396300,0.076000,9.661500,-165.500000,-31.750000,4034.000000
1730647673975,-2.595900,0.534600,0.967300,0.408900,0.077200,9.663900,-170.750000,-32.250000,4035.000000
1730647673975,-2.502000,0.473400,0.930600,0.404100,0.077200,9.657900,-168.750000,-32.250000,4032.500000
1730647673975,-2.538700,0.489700,0.975500,0.396300,0.080200,9.660300,-165.500000,-33.500000,4033.500000
1730647673977,-2.563200,0.571400,0.979500,0.396900,0.084400,9.653700,-165.750000,-35.250000,4094.750000
1730647673977,-2.534600,0.575500,0.918300,0.371800,0.146000,9.576400,-155.250000,-61.000000,3998.500000
1730647673977,-2.497900,0.551000,0.922400,0.462200,0.065800,9.889000,-193.000000,-27.500000,4129.000000
1730647673977,-2.599900,0.440800,0.938700,0.396900,0.066400,9.705200,-173.000000,-33.500000,4035.000000
1730647673978,-2.624400,0.555100,0.967300,0.426900,0.082600,9.672800,-178.250000,-34.500000,4038.750000
1730647673978,-2.644800,0.555100,0.971400,0.441200,0.084400,9.645900,-184.250000,-35.250000,4027.500000
1730647673978,-2.587700,0.538700,-1.016300,0.432800,0.091000,9.650700,-182.250000,-38.250000,4037.250000
1730647673978,-2.546900,0.481600,0.975500,0.439400,0.092200,9.660900,-183.500000,-38.500000,4033.750000
1730647673978,-2.579500,0.514200,0.942800,0.423300,0.075400,9.657300,-176.750000,-31.500000,4032.250000
1730647673978,-2.481600,0.461200,0.910200,0.440600,0.080200,9.670400,-178.000000,-33.250000,4036.000000
1730647673978,-2.469300,0.559100,0.955100,0.422700,0.078400,9.674600,-176.500000,-32.750000,4039.500000
1730647673978,-2.477500,0.510200,0.967300,0.416700,0.088000,9.659700,-174.000000,-36.750000,4033.250000
1730647673979,-2.477500,0.534600,0.942800,0.417300,0.090400,9.675800,-176.750000,-37.750000,4040.000000
1730647673979,-2.465300,0.522400,0.922400,0.409500,0.075400,9.662100,-171.000000,-31.500000,4034.250000
1730647673979,-2.542800,0.579500,0.991800,0.393900,0.076000,9.671000,-164.500000,-31.750000,4038.000000
1730647673979,-2.608100,0.555100,-1.000000,0.399300,0.075400,9.674000,-166.750000,-31.500000,4039.250000
1730647673979,-2.648900,0.530600,0.995900,0.393300,0.075400,9.668000,-164.250000,-31.500000,4036.750000
1730647673979,-2.591800,0.538700,0.987700,0.411900,0.080200,9.657300,-172.000000,-33.500000,4032.250000
1730647673980,-2.502000,0.571400,-1.000000,0.416100,0.099900,9.665600,-173.750000,-41.750000,4035.750000
1730647673980,-2.538700,0.510200,0.995900,0.422700,0.086800,9.674600,-176.500000,-36.250000,4039.500000
1730647673980,-2.604000,0.506100,0.922400,0.447800,0.070000,9.669800,-187.000000,-35.250000,4036.250000
1730647673980,-2.644800,0.538700,0.971400,0.441800,0.087400,9.656700,-184.500000,-36.500000,4032.000000
1730647673980,-2.518300,0.530600,0.942800,0.440000,0.081400,9.665600,-183.750000,-34.000000,4035.750000
1730647673980,-2.628500,0.534600,0.979500,0.443600,0.071800,9.675200,-183.250000,-34.250000,4029.250000
1730647673980,-2.620400,0.522400,0.946900,0.424500,0.091600,9.654900,-177.250000,-38.250000,4031.250000
1730647673981,-2.665300,0.587700,0.979500,0.421500,0.092200,9.668000,-176.000000,-38.500000,4036.750000
1730647673981,-2.608100,0.514200,0.942800,0.402900,0.070000,9.654900,-173.250000,-32.500000,4034.750000
1730647673981,-2.632600,0.493800,0.955100,0.394500,0.067600,9.665600,-164.750000,-28.250000,4035.750000
1730647673981,-2.628500,0.485700,-1.024400,0.399300,0.075400,9.668000,-166.750000,-31.500000,4036.750000
1730647673981,-2.506100,0.465300,-1.000000,0.399900,0.068800,9.524900,-164.000000,-28.250000,4031.000000
1730647673981,-2.551000,0.461200,0.971400,0.413100,0.072400,9.665100,-172.500000,-30.250000,4035.500000
1730647673981,-2.559100,0.506100,0.979500,0.414900,0.091000,9.671600,-173.250000,-38.000000,4038.250000
1730647673981,-2.571400,0.518300,0.979500,0.434000,0.085000,9.688400,-181.250000,-35.500000,4045.250000
1730647673983,-2.473400,0.530600,0.906100,0.434600,0.071800,9.694400,-181.500000,-30.000000,4047.750000
1730647673983,-2.473400,0.465300,0.963200,0.431100,0.076600,9.671600,-180.000000,-32.000000,4038.250000
1730647673983,-2.469300,0.497900,0.959100,0.424500,0.085000,9.646500,-177.250000,-35.500000,4027.750000
1730647673983,-2.506100,0.506100,0.906100,0.425700,0.087400,9.656700,-177.750000,-36.500000,4032.000000
1730647673983,-2.481600,0.493800,0.938700,0.422100,0.088000,9.654300,-176.250000,-36.750000,4035.250000
1730647673983,-2.575500,0.563200,-1.008100,0.416100,0.095200,9.663300,-173.750000,-39.750000,4034.750000
1730647673983,-2.485700,0.510200,0.897900,0.416700,0.088000,9.660300,-174.000000,-36.750000,4033.500000
1730647673984,-2.502000,0.506100,0.946900,0.412500,0.075400,9.647700,-167.500000,-30.000000,4032.000000
1730647673984,-2.526500,0.575500,0.955100,0.414900,0.082600,9.658500,-173.250000,-34.500000,4032.750000
1730647673984,-2.448900,0.546900,0.885700,0.413100,0.083800,9.668000,-172.500000,-35.000000,4036.750000
1730647673984,-2.583600,0.514200,0.967300,0.419100,0.088000,9.648900,-172.500000,-35.500000,4029.000000
1730647673984,-2.510200,0.567300,0.963200,0.427500,0.083200,9.660900,-178.500000,-34.750000,4033.750000
1730647673985,-2.502000,0.546900,0.971400,0.421500,0.080200,9.660300,-176.000000,-33.500000,4033.500000
1730647673985,-2.477500,0.493800,0.906100,0.422100,0.077800,9.664500,-176.000000,-35.750000,4034.500000
1730647673985,-2.522400,0.502000,0.963200,0.417300,0.082600,9.655500,-174.250000,-34.500000,4031.500000
1730647673985,-2.563200,0.510200,0.971400,0.417900,0.085000,9.667400,-174.500000,-35.500000,4036.500000
1730647673985,-2.514200,0.530600,0.967300,0.402300,0.083200,9.651300,-168.000000,-34.750000,4029.750000
1730647673985,-2.587700,0.530600,0.963200,0.413100,0.086200,9.664500,-172.500000,-36.000000,4035.250000
1730647673986,-2.620400,0.595900,-1.016300,0.407100,0.096300,9.645300,-170.000000,-40.250000,4027.250000
1730647673986,-2.530600,0.551000,-1.020400,0.425100,0.080800,9.669800,-177.500000,-33.750000,4037.500000
1730647673986,-2.575500,0.591800,0.987700,0.419100,0.070000,9.669800,-175.000000,-29.250000,4037.500000
1730647673986,-2.518300,0.497900,0.902000,0.431700,0.085000,9.674000,-180.250000,-35.500000,4029.500000
1730647673986,-2.555100,0.526500,0.983600,0.416100,0.084400,9.656700,-173.750000,-35.250000,4032.000000
1730647673987,-2.481600,0.530600,0.955100,0.426300,0.088600,9.653100,-178.000000,-37.000000,4030.500000
1730647673987,-2.571400,0.453000,0.987700,0.410100,0.077200,9.657300,-173.000000,-32.500000,4026.500000
1730647673987,-2.502000,0.518300,0.942800,0.412500,0.080800,9.668000,-172.250000,-33.750000,4036.750000
1730647673987,-2.465300,0.514200,0.951000,0.413700,0.083200,9.661500,-172.750000,-34.750000,4034.000000
1730647673987,-2.559100,0.538700,0.975500,0.416100,0.083800,9.672800,-172.250000,-33.250000,4033.000000
1730647673987,-2.571400,0.534600,0.995900,0.422100,0.084400,9.663300,-176.250000,-35.250000,4034.750000
1730647673988,-2.657100,0.538700,0.991800,0.416100,0.085600,9.657300,-173.750000,-35.750000,4032.250000
1730647673988,-2.669300,0.546900,0.959100,0.401700,0.087400,9.651900,-169.750000,-37.750000,4034.000000
1730647673988,-2.636700,0.542800,-1.000000,0.419100,0.080800,9.650700,-175.000000,-33.750000,4029.500000
1730647673988,-2.653000,0.493800,-1.032600,0.418500,0.078400,9.647100,-174.750000,-32.750000,4028.000000
1730647673988,-2.657100,0.567300,-1.000000,0.419700,0.076000,9.669200,-178.000000,-34.000000,4037.250000
1730647673988,-2.591800,0.534600,0.991800,0.417900,0.080800,9.660900,-174.500000,-33.750000,4033.750000
1730647673988,-2.722400,0.534600,-1.000000,0.414900,0.085000,9.657900,-173.250000,-35.500000,4032.500000
1730647673988,-2.497900,0.497900,0.902000,0.420900,0.082600,9.645900,-175.750000,-34.500000,4027.500000
1730647673988,-2.530600,0.502000,0.930600,0.420900,0.093400,9.657300,-175.750000,-39.000000,4032.250000
1730647673988,-2.506100,0.522400,0.955100,0.405900,0.072400,9.662100,-169.500000,-30.250000,4034.250000
1730647673989,-2.489700,0.567300,0.906100,0.419100,0.078400,9.662700,-175.000000,-32.750000,4034.500000
1730647673989,-2.599900,0.514200,0.971400,0.417300,0.081400,9.650700,-174.250000,-34.000000,4029.500000
1730647673989,-2.636700,0.567300,-1.016300,0.414900,0.080200,9.660300,-173.250000,-39.000000,4038.500000
1730647673989,-2.673400,0.542800,-1.000000,0.414300,0.080200,9.662100,-173.000000,-33.500000,4034.250000
1730647673989,-2.685700,0.546900,-1.032600,0.416100,0.079600,9.662100,-173.750000,-33.250000,4034.250000
1730647673990,-2.567300,0.502000,-1.000000,0.405300,0.087400,9.645900,-172.500000,-33.250000,4034.500000
1730647673990,-2.591800,0.600000,0.983600,0.411300,0.077200,9.658500,-171.750000,-32.250000,4032.750000
1730647673990,-2.604000,0.583600,0.971400,0.418500,0.080800,9.670400,-174.750000,-33.750000,4037.750000
1730647673991,-2.608100,0.551000,0.946900,0.414900,0.081400,9.657900,-176.000000,-36.750000,4027.500000
1730647673991,-2.620400,0.514200,0.942800,0.413700,0.087400,9.654900,-172.750000,-36.500000,4031.250000
1730647673991,-2.612200,0.583600,-1.004000,0.421500,0.081400,9.660300,-176.000000,-34.000000,4033.500000
1730647673991,-2.616300,0.534600,-1.036700,0.425700,0.076600,9.513600,-174.250000,-34.750000,4031.000000
1730647673991,-2.599900,0.522400,-1.000000,0.410700,0.079000,9.657900,-171.500000,-33.000000,4032.500000
1730647673992,-2.608100,0.510200,0.987700,0.423900,0.079000,9.662700,-177.000000,-33.000000,4034.500000
1730647673992,-2.563200,0.538700,0.930600,0.420300,0.079600,9.660900,-175.500000,-33.250000,4033.750000
1730647673992,-2.632600,0.559100,0.987700,0.413700,0.094000,9.659700,-172.750000,-39.250000,4033.250000
1730647673992,-2.624400,0.465300,-1.020400,0.412500,0.096300,9.658500,-172.250000,-40.250000,4032.750000
1730647673992,-2.624400,0.473400,-1.008100,0.417300,0.080800,9.662100,-174.250000,-33.750000,4034.250000
1730647673992,-2.599900,0.518300,-1.028500,0.417900,0.077800,9.656100,-174.500000,-32.500000,4031.750000
1730647673992,-2.579500,0.518300,0.979500,0.414900,0.079000,9.653700,-173.250000,-33.000000,4030.000000
1730647673992,-2.648900,0.567300,-1.048900,0.422100,0.078400,9.668000,-176.250000,-32.750000,4036.750000
1730647673993,-2.567300,0.600000,-1.040800,0.413700,0.082600,9.663900,-172.750000,-34.500000,4035.000000
1730647673993,-2.640800,0.551000,-1.044800,0.421500,0.088600,9.663300,-176.250000,-33.500000,4030.250000
1730647673993,-2.669300,0.546900,0.979500,0.419700,0.076000,9.661500,-175.250000,-31.750000,4034.000000
1730647673993,-2.538700,0.555100,0.955100,0.422100,0.088000,9.658500,-176.250000,-36.750000,4032.750000
1730647673994,-2.510200,0.559100,-1.004000,0.422100,0.088600,9.663900,-173.750000,-38.750000,4031.000000
1730647673994,-2.587700,0.542800,0.975500,0.422700,0.078400,9.674600,-176.500000,-32.750000,4039.500000
1730647673994,-2.514200,0.514200,-1.008100,0.418500,0.079000,9.669200,-174.750000,-33.000000,4037.250000
1730647673994,-2.587700,0.493800,0.991800,0.417300,0.079600,9.669200,-172.000000,-38.500000,4034.000000
1730647673994,-2.534600,0.448900,0.959100,0.409500,0.080800,9.661500,-171.000000,-33.750000,4034.000000
1730647673994,-2.469300,0.473400,0.946900,0.422100,0.080800,9.664500,-176.250000,-33.750000,4035.250000
1730647673994,-2.448900,0.522400,0.914200,0.410100,0.074800,9.660300,-168.500000,-31.250000,4033.500000
1730647673995,-2.497900,0.522400,0.946900,0.404700,0.079600,9.649500,-169.000000,-33.250000,4029.000000
1730647673995,-2.518300,0.497900,0.959100,0.417900,0.082000,9.660900,-174.500000,-34.250000,4033.750000
1730647673995,-2.583600,0.546900,0.975500,0.418500,0.080200,9.655500,-174.750000,-33.500000,4031.500000
1730647673995,-2.485700,0.497900,0.951000,0.423900,0.079600,9.662100,-177.000000,-33.250000,4034.250000
1730647673995,-2.571400,0.514200,0.942800,0.418500,0.082000,9.655500,-174.750000,-34.250000,4095.500000
1730647673995,-2.534600,0.530600,0.959100,0.426300,0.079000,9.669200,-178.000000,-33.000000,4037.250000
1730647674011,-2.481600,0.465300,0.893800,0.383800,0.068800,9.657900,-160.250000,-28.750000,4030.000000
1730647674017,-2.620400,0.555100,0.991800,0.404100,0.092800,9.663900,-168.750000,-38.750000,4035.000000
1730647674037,-2.555100,0.502000,0.959100,0.383200,0.088000,9.660300,-160.000000,-36.750000,4033.500000
1730647674057,-2.493800,0.555100,0.918300,0.396300,0.085000,9.645300,-169.750000,-37.500000,4025.750000
1730647674077,-2.489700,0.522400,0.910200,0.406500,0.075400,9.664500,-169.750000,-31.500000,4035.250000
1730647674097,-2.506100,0.497900,0.955100,0.396900,0.072400,9.662700,-165.750000,-30.250000,4034.500000
1730647674117,-2.453000,0.481600,0.991800,0.411900,0.083200,9.669800,-178.000000,-36.000000,4043.500000
1730647674137,-2.518300,0.416300,0.967300,0.405300,0.075400,9.660900,-169.250000,-31.500000,4033.750000
1730647674157,-2.534600,0.453000,0.942800,0.394500,0.090400,9.657300,-164.750000,-37.750000,4032.250000
1730647674177,-2.502000,0.461200,0.926500,0.408300,0.096900,9.652500,-174.250000,-38.000000,4034.000000
1730647674197,-2.457100,0.485700,0.983600,0.410100,0.075400,9.645900,-171.250000,-31.500000,4027.500000
1730647674216,-2.534600,0.477500,0.938700,0.403500,0.082600,9.667400,-168.500000,-34.500000,4036.500000
1730647674235,-2.636700,0.542800,0.987700,0.404700,0.064000,9.666200,-168.250000,-26.750000,4036.000000
1730647674255,-2.526500,0.477500,0.959100,0.404700,0.085000,9.665100,-169.000000,-35.500000,4035.500000
1730647674276,-2.555100,0.530600,0.967300,0.397500,0.083800,9.659100,-166.000000,-35.000000,4033.000000
1730647674295,-2.595900,0.555100,-1.004000,0.412500,0.097500,9.661500,-172.250000,-40.750000,4034.000000
1730647674315,-2.555100,0.551000,0.991800,0.408300,0.096300,9.657900,-170.500000,-40.250000,4032.500000
1730647674336,-2.604000,0.461200,0.926500,0.394500,0.073600,9.666800,-164.750000,-30.750000,4036.250000
1730647674356,-2.591800,0.502000,0.975500,0.387300,0.070000,9.656700,-161.750000,-29.250000,4032.000000
1730647674375,-2.465300,0.514200,0.922400,0.416100,0.074800,9.668000,-173.750000,-31.250000,4036.750000
1730647674395,-2.697900,0.530600,-1.028500,0.389100,0.080200,9.653100,-160.500000,-35.500000,4031.750000
1730647674416,-2.604000,0.559100,0.991800,0.392100,0.080800,9.656100,-163.750000,-33.750000,4031.750000
1730647674436,-2.567300,0.587700,0.938700,0.395100,0.086800,9.669800,-165.000000,-36.250000,4037.500000
1730647674455,-2.538700,0.530600,0.967300,0.411300,0.085600,9.665600,-171.750000,-35.500000,4031.000000
1730647674476,-2.534600,0.518300,0.963200,0.401100,0.076000,9.656100,-167.500000,-31.750000,4031.750000
1730647674495,-2.579500,0.518300,0.983600,0.399900,0.075400,9.665600,-167.000000,-31.500000,4035.750000
1730647674515,-2.510200,0.526500,0.987700,0.403500,0.088000,9.660900,-175.500000,-35.250000,4038.500000
1730647674535,-2.534600,0.510200,0.991800,0.409500,0.077200,9.648300,-171.000000,-32.250000,4028.500000
1730647674555,-2.485700,0.448900,0.942800,0.402900,0.091600,9.672800,-168.250000,-38.250000,4038.750000
1730647674575,-2.526500,0.457100,0.955100,0.408900,0.086800,9.668000,-169.500000,-30.500000,4036.750000
1730647674595,-2.469300,0.424400,0.955100,0.406500,0.080800,9.663300,-169.750000,-33.750000,4034.750000
1730647674615,-2.526500,0.510200,0.975500,0.414900,0.088600,9.668000,-173.250000,-37.000000,4036.750000
1730647674634,-2.510200,0.481600,0.951000,0.382600,0.076600,9.669800,-159.750000,-32.000000,4037.500000
1730647674655,-2.632600,0.538700,0.979500,0.389700,0.079000,9.658500,-162.750000,-33.000000,4032.750000
1730647674674,-2.616300,0.526500,-1.008100,0.393900,0.089200,9.659700,-164.500000,-37.250000,4033.250000
1730647674695,-2.583600,0.493800,0.967300,0.384400,0.077200,9.651300,-160.500000,-32.250000,4029.750000
1730647674715,-2.530600,0.514200,0.889700,0.386100,0.079000,9.666800,-161.250000,-33.000000,4036.250000
1730647674735,-2.583600,0.526500,0.983600,0.397500,0.078400,9.665600,-166.000000,-33.250000,4038.500000
1730647674754,-2.591800,0.522400,0.987700,0.400500,0.085000,9.672800,-167.250000,-35.500000,4038.750000
1730647674775,-2.604000,0.526500,0.930600,0.401700,0.083200,9.654900,-167.750000,-34.750000,4031.250000
1730647674794,-2.502000,0.506100,0.967300,0.418500,0.081400,9.677000,-174.250000,-35.500000,4040.500000
1730647674814,-2.583600,0.506100,0.991800,0.408900,0.092200,9.661500,-170.750000,-38.500000,4034.000000
1730647674833,-2.583600,0.514200,0.983600,0.391500,0.080200,9.662700,-163.500000,-33.500000,4034.500000
1730647674854,-2.506100,0.473400,0.975500,0.413700,0.081400,9.661500,-165.250000,-33.250000,4031.000000
1730647674873,-2.567300,0.489700,0.963200,0.389100,0.080800,9.656700,-162.500000,-33.750000,4032.000000
1730647674894,-2.477500,0.485700,0.963200,0.409500,0.083800,9.668600,-171.000000,-35.000000,4037.000000
1730647674913,-2.559100,0.469300,0.959100,0.402900,0.079600,9.656700,-167.500000,-34.750000,4039.000000
1730647674934,-2.653000,0.506100,0.951000,0.412500,0.080200,9.665100,-172.250000,-33.500000,4035.500000
1730647674953,-2.620400,0.457100,0.934600,0.398700,0.094000,9.662700,-166.500000,-39.250000,4034.500000
1730647674974,-2.436700,0.465300,0.881600,0.388500,0.075400,9.673400,-165.750000,-31.500000,4039.000000
1730647674994,-2.546900,0.497900,0.955100,0.396300,0.070000,9.666800,-165.500000,-29.250000,4036.250000
1730647675013,-2.530600,0.493800,0.910200,0.377800,0.079000,9.653700,-157.750000,-33.000000,4030.750000
1730647675033,-2.563200,0.522400,0.963200,0.383800,0.081400,9.643500,-160.250000,-34.000000,4026.500000
1730647675053,-2.575500,0.461200,0.995900,0.406500,0.080200,9.663900,-169.750000,-33.500000,4035.000000
1730647675073,-2.502000,0.469300,0.873400,0.392700,0.074200,9.665100,-164.000000,-31.000000,3971.500000
1730647675093,-2.534600,0.481600,0.963200,0.401100,0.083200,9.659100,-167.500000,-34.750000,4033.000000
1730647675113,-2.493800,0.538700,0.979500,0.402900,0.080200,9.661500,-168.250000,-33.500000,4034.000000
1730647675133,-2.534600,0.481600,0.946900,0.405900,0.078400,9.668600,-168.500000,-35.500000,4037.250000
1730647675153,-2.518300,0.461200,0.942800,0.404700,0.083200,9.667400,-169.000000,-34.750000,4036.500000
1730647675172,-2.530600,0.489700,0.987700,0.403500,0.084400,9.648300,-168.500000,-35.250000,4028.500000
1730647675192,-2.648900,0.518300,0.967300,0.402900,0.092800,9.641700,-166.250000,-34.750000,4033.250000
1730647675213,-2.653000,0.489700,0.991800,0.393900,0.065800,9.659100,-164.500000,-27.500000,4033.000000
1730647675233,-2.551000,0.542800,0.938700,0.407100,0.084400,9.662700,-170.000000,-35.250000,4034.500000
1730647675253,-2.591800,0.579500,0.959100,0.382000,0.096900,9.653100,-160.500000,-41.500000,4036.250000
1730647675273,-2.608100,0.518300,0.979500,0.388500,0.072400,9.656700,-162.250000,-30.250000,4032.000000
1730647675292,-2.583600,0.518300,-1.004000,0.402300,0.070600,9.675200,-168.000000,-29.500000,4039.750000
1730647675312,-2.559100,0.469300,0.938700,0.415500,0.087400,9.657900,-170.000000,-35.500000,4032.500000
1730647675333,-2.546900,0.461200,0.910200,0.405300,0.081400,9.670400,-169.250000,-34.000000,4037.750000
1730647675352,-2.579500,0.485700,0.926500,0.395700,0.068200,9.685400,-165.250000,-28.500000,4044.000000
1730647675371,-2.563200,0.469300,-1.000000,0.404700,0.103500,9.610000,-169.000000,-43.250000,4012.500000
1730647675392,-2.673400,0.571400,-1.004000,0.388500,0.088000,9.641700,-162.250000,-36.750000,4025.750000
1730647675412,-2.653000,0.489700,0.983600,0.386100,0.067600,9.665600,-161.250000,-28.250000,4035.750000
1730647675432,-2.538700,0.538700,-1.028500,0.431700,0.064600,9.695600,-180.250000,-27.000000,4048.250000
1730647675451,-2.591800,0.465300,0.938700,0.378400,0.101100,9.607000,-158.000000,-42.250000,4011.250000
1730647675472,-2.555100,0.502000,0.963200,0.398100,0.077800,9.672200,-166.250000,-34.500000,4029.500000
1730647675492,-2.571400,0.534600,0.979500,0.395100,0.076000,9.635100,-165.000000,-31.750000,4023.000000
1730647675512,-2.616300,0.546900,0.991800,0.386100,0.098700,9.684200,-161.250000,-41.250000,4043.500000
1730647675531,-2.604000,0.546900,0.926500,0.397500,0.079600,9.676400,-164.500000,-33.000000,4037.750000
1730647675552,-2.628500,0.542800,-1.000000,0.401100,0.060400,9.675800,-167.500000,-25.250000,4040.000000
1730647675572,-2.608100,0.416300,0.946900,0.398100,0.076000,9.666800,-166.250000,-31.750000,4036.250000
1730647675592,-2.599900,0.534600,0.955100,0.390900,0.079000,9.641100,-164.250000,-41.250000,4026.250000
1730647675612,-2.522400,0.489700,0.853000,0.408900,0.086200,9.651300,-170.750000,-36.000000,4029.750000
1730647675632,-2.624400,0.522400,-1.004000,0.405300,0.074200,9.657900,-169.250000,-31.000000,4032.500000
1730647675651,-2.534600,0.489700,0.959100,0.396300,0.077200,9.665600,-170.750000,-35.750000,4032.250000
1730647675671,-2.632600,0.457100,0.987700,0.395100,0.073600,9.647700,-165.000000,-30.750000,4028.250000
1730647675690,-2.591800,0.506100,0.979500,0.422100,0.076600,9.649500,-176.250000,-32.000000,4029.000000
1730647675711,-2.571400,0.563200,0.991800,0.382000,0.094600,9.642900,-159.500000,-39.500000,4026.250000
1730647675731,-2.583600,0.518300,0.959100,0.379600,0.078400,9.674000,-158.500000,-32.750000,4039.250000
1730647675751,-2.669300,0.489700,0.971400,0.402300,0.076600,9.654900,-168.000000,-32.000000,4031.250000
1730647675771,-2.583600,0.514200,0.979500,0.415500,0.105900,9.677000,-173.500000,-44.250000,4040.500000
1730647675791,-2.604000,0.514200,0.946900,0.355600,0.078400,9.663900,-148.500000,-32.750000,4035.000000
1730647675810,-2.502000,0.416300,0.987700,0.353800,0.019700,9.684200,-147.750000,-8.250000,4030.750000
1730647675830,-2.579500,0.555100,0.975500,0.449000,0.116700,9.682400,-187.500000,-48.750000,4042.750000
1730647675851,-2.530600,0.575500,0.938700,0.420300,0.140700,9.661500,-175.500000,-58.750000,4034.000000
1730647675870,-2.665300,0.526500,0.934600,0.321500,0.013700,9.726100,-126.500000,2.250000,4029.750000
1730647675890,-2.453000,0.575500,0.975500,0.479000,0.111300,9.641100,-200.000000,-46.500000,4025.500000
1730647675910,-2.587700,0.465300,0.926500,0.422100,0.134700,9.674000,-176.250000,-56.250000,4039.250000
1730647675929,-2.612200,0.563200,0.971400,0.346000,0.059800,9.659100,-167.500000,-19.500000,4048.250000
1730647675949,-2.502000,0.424400,0.975500,0.380200,0.007100,9.677600,-158.750000,-3.000000,4040.750000
1730647675969,-2.465300,0.604000,0.975500,0.456800,0.184400,9.590800,-190.750000,-77.000000,4004.500000
1730647675990,-2.542800,0.314200,0.946900,0.422100,0.135300,9.696200,-133.500000,-22.750000,4003.500000
1730647676010,-2.432600,0.600000,-1.004000,0.454400,0.016100,9.750700,-189.750000,-6.750000,4071.250000
1730647676030,-2.559100,0.395900,0.930600,0.392700,0.079000,9.623100,-164.000000,-33.000000,4018.000000
1730647676049,-2.579500,0.559100,0.963200,0.425700,0.118500,9.702200,-175.250000,-49.500000,4051.000000
1730647676070,-2.653000,0.473400,0.979500,0.363400,0.022100,9.641100,-151.750000,-9.250000,4025.500000
1730647676090,-2.526500,0.571400,0.991800,0.428100,0.070000,9.698600,-178.750000,-29.250000,4049.500000
1730647676109,-2.595900,0.538700,-1.000000,0.399900,0.130500,9.651300,-167.000000,-54.500000,4029.750000
1730647676130,-2.661200,0.497900,0.963200,0.380800,0.070000,9.662700,-159.000000,-29.250000,4034.500000
1730647676150,-2.559100,0.510200,0.987700,0.384900,0.038300,9.678800,-160.750000,-16.000000,4041.250000
1730647676169,-2.608100,0.514200,-1.028500,0.378400,0.099300,9.653100,-158.000000,-41.500000,4030.500000
1730647676189,-2.595900,0.538700,0.983600,0.384400,0.116700,9.651900,-160.500000,-48.750000,4030.000000
1730647676209,-2.579500,0.506100,0.975500,0.383800,0.058600,9.649500,-160.250000,-24.750000,4035.500000
1730647676230,-2.534600,0.522400,-1.008100,0.408900,0.095800,9.653700,-170.750000,-40.000000,4030.750000
1730647676249,-2.534600,0.502000,0.922400,0.390300,0.117300,9.651900,-163.000000,-49.000000,4030.000000
1730647676268,-2.493800,0.432600,0.934600,0.401700,0.064000,9.663900,-165.750000,-16.750000,4040.250000
1730647676289,-2.493800,0.461200,0.946900,0.421500,0.066400,9.671000,-176.000000,-27.750000,4038.000000
1730647676308,-2.493800,0.497900,0.946900,0.396300,0.093400,9.653100,-165.500000,-39.000000,4030.500000
1730647676329,-2.530600,0.457100,0.930600,0.395100,0.091600,9.659100,-167.000000,-31.000000,4040.000000
1730647676349,-2.530600,0.448900,0.930600,0.407100,0.071800,9.675800,-170.000000,-30.000000,4040.000000
1730647676369,-2.542800,0.436700,0.991800,0.424500,0.091000,9.678800,-177.250000,-38.000000,4041.250000
1730647676389,-2.534600,0.257100,0.987700,0.404700,0.079000,9.675200,-171.000000,-26.250000,4041.500000
1730647676409,-2.481600,0.171400,0.938700,0.409500,0.044300,9.699800,-171.000000,-18.500000,4050.000000
1730647676429,-2.546900,0.138700,0.934600,0.407100,0.080800,9.685400,-170.000000,-33.750000,4044.000000
1730647676449,-2.636700,0.036700,0.967300,0.364600,0.085000,9.635100,-152.250000,-35.500000,4023.000000
1730647676468,-2.465300,0.069300,0.926500,0.397500,0.071200,9.668600,-166.000000,-29.750000,4037.000000
1730647676489,-2.546900,0.085700,0.926500,0.365200,0.086200,9.625500,-152.500000,-36.000000,4019.000000
1730647676509,-2.689700,0.204000,-1.000000,0.380200,0.047300,9.626700,-158.750000,-19.750000,4019.500000
1730647676527,-2.620400,0.355100,-1.040800,0.346600,0.171200,9.624300,-144.750000,-71.500000,4018.500000
1730647676548,-2.693800,0.326500,-1.012200,0.330500,0.055000,9.647100,-138.000000,-23.000000,4026.000000
1730647676568,-2.681600,0.522400,-1.048900,0.374200,0.091600,9.657300,-156.250000,-38.250000,4032.250000
1730647676588,-2.591800,0.526500,-1.012200,0.401700,0.059800,9.653100,-167.750000,-25.000000,4030.500000
1730647676608,-2.583600,0.493800,0.995900,0.344800,0.094600,9.655500,-146.000000,-45.750000,4022.500000
1730647676628,-2.583600,0.473400,-1.028500,0.364000,0.080800,9.659700,-152.000000,-33.750000,4033.250000
1730647676648,-2.669300,0.465300,-1.032600,0.359200,0.049600,9.661500,-150.000000,-20.750000,4034.000000
1730647676667,-2.640800,0.538700,0.951000,0.346600,0.074200,9.663900,-138.500000,-35.750000,4030.750000
1730647676688,-2.612200,0.514200,-1.032600,0.317300,0.079600,9.649500,-132.500000,-33.250000,4029.000000
1730647676708,-2.599900,0.497900,0.942800,0.371800,0.079600,9.675200,-155.250000,-33.250000,4039.750000
1730647676728,-2.595900,0.453000,-1.032600,0.362800,0.071200,9.666200,-148.500000,-31.500000,4026.250000
1730647676748,-2.632600,0.551000,0.946900,0.358000,0.091600,9.674000,-149.500000,-38.250000,4039.250000
1730647676767,-2.530600,0.510200,0.955100,0.384900,0.095200,9.662700,-160.750000,-39.750000,4034.500000
1730647676788,-2.608100,0.502000,-1.028500,0.398100,0.069400,9.664500,-163.000000,-29.000000,4035.250000
1730647676807,-2.559100,0.485700,0.955100,0.378400,0.073600,9.659100,-158.000000,-30.750000,4033.000000
1730647676827,-2.506100,0.489700,0.942800,0.379000,0.076600,9.663300,-158.250000,-32.000000,4034.750000
1730647676847,-2.563200,0.538700,0.942800,0.408300,0.086800,9.659700,-170.500000,-36.250000,4033.250000
1730647676867,-2.620400,0.530600,0.975500,0.380800,0.091600,9.660300,-159.000000,-38.250000,4033.500000
1730647676887,-2.530600,0.542800,0.967300,0.384900,0.090400,9.669800,-160.750000,-37.750000,4037.500000
1730647676907,-2.595900,0.497900,0.979500,0.389100,0.083200,9.654300,-162.500000,-34.750000,4031.000000
1730647676927,-2.575500,0.526500,0.987700,0.380800,0.080800,9.660900,-159.000000,-33.750000,4033.750000
1730647676947,-2.506100,0.493800,0.934600,0.354400,0.079000,9.668000,-148.000000,-32.500000,4031.000000
1730647676967,-2.595900,0.469300,0.979500,0.356800,0.080200,9.666200,-149.000000,-33.500000,4036.000000
1730647676987,-2.612200,0.555100,0.991800,0.369400,0.074800,9.659100,-154.250000,-31.250000,4033.000000
1730647677006,-2.644800,0.526500,0.983600,0.342400,0.090400,9.653700,-141.250000,-35.500000,4035.250000
1730647677027,-2.563200,0.489700,0.963200,0.356800,0.079600,9.667400,-149.000000,-33.250000,4036.500000
1730647677047,-2.514200,0.444800,0.942800,0.384400,0.073000,9.667400,-160.500000,-30.500000,4036.500000
1730647677065,-2.571400,0.559100,0.991800,0.382000,0.088000,9.659700,-155.000000,-39.500000,4032.250000
1730647677086,-2.612200,0.538700,0.995900,0.371800,0.092200,9.665600,-155.250000,-38.500000,4035.750000
1730647677105,-2.632600,0.551000,-1.008100,0.392100,0.084400,9.663300,-163.750000,-35.250000,4034.750000
1730647677126,-2.632600,0.514200,0.938700,0.389100,0.086800,9.656100,-162.750000,-37.000000,4031.750000
1730647677145,-2.575500,0.440800,0.963200,0.380800,0.082600,9.663900,-159.000000,-34.500000,4035.000000
1730647677165,-2.620400,0.518300,0.975500,0.377800,0.079600,9.662700,-157.750000,-33.250000,4034.500000
1730647677186,-2.526500,0.514200,-1.004000,0.380200,0.079600,9.660300,-158.750000,-33.250000,4033.500000
1730647677205,-2.567300,0.526500,0.959100,0.376000,0.074800,9.660900,-157.000000,-31.250000,4033.750000
1730647677226,-2.608100,0.542800,0.995900,0.370000,0.074800,9.665600,-154.500000,-31.250000,4035.750000
1730647677246,-2.648900,0.514200,-1.000000,0.369400,0.089200,9.659100,-154.250000,-37.250000,4033.000000
1730647677265,-2.632600,0.559100,-1.024400,0.369400,0.091600,9.664500,-154.250000,-38.250000,4035.250000
1730647677285,-2.612200,0.453000,0.995900,0.360400,0.072400,9.660300,-150.500000,-30.250000,4039.000000
1730647677306,-2.624400,0.579500,-1.040800,0.363400,0.069400,9.659100,-151.750000,-29.000000,4033.000000
1730647677325,-2.595900,0.473400,0.967300,0.366400,0.076600,9.671000,-153.000000,-32.000000,4038.000000
1730647677346,-2.604000,0.538700,0.930600,0.366400,0.077800,9.657300,-158.250000,-33.000000,4032.750000
1730647677365,-2.546900,0.514200,0.922400,0.368200,0.083800,9.655500,-153.750000,-35.000000,4031.500000
1730647677385,-2.604000,0.555100,0.991800,0.386100,0.083800,9.663300,-161.250000,-35.000000,4034.750000
1730647677404,-2.587700,0.526500,-1.008100,0.381400,0.088600,9.674600,-159.000000,-38.250000,4033.000000
1730647677425,-2.485700,0.514200,0.963200,0.381400,0.082600,9.658500,-159.250000,-34.500000,4032.750000
1730647677445,-2.636700,0.542800,0.963200,0.385500,0.074200,9.655500,-161.000000,-31.000000,4031.500000
1730647677465,-2.595900,0.555100,0.951000,0.380200,0.079000,9.508800,-158.000000,-31.250000,4031.750000
1730647677484,-2.530600,0.493800,0.918300,0.369400,0.089200,9.642900,-154.250000,-37.250000,4026.250000
1730647677505,-2.542800,0.546900,0.959100,0.369400,0.074200,9.655500,-154.250000,-31.000000,4031.500000
1730647677524,-2.563200,0.534600,0.967300,0.365200,0.077800,9.660900,-152.500000,-32.500000,4033.750000
1730647677544,-2.465300,0.485700,-1.012200,0.364600,0.083200,9.662100,-152.250000,-34.750000,4034.250000
1730647677565,-2.681600,0.481600,0.991800,0.373000,0.085000,9.653700,-155.750000,-35.500000,4030.750000
1730647677584,-2.624400,0.546900,-1.004000,0.368200,0.080800,9.662100,-153.750000,-33.750000,4034.250000
1730647677604,-2.571400,0.506100,0.991800,0.371200,0.083800,9.657300,-155.000000,-35.000000,4032.250000
1730647677624,-2.648900,0.526500,0.979500,0.367000,0.081400,9.666800,-153.250000,-34.000000,4037.750000
1730647677645,-2.620400,0.542800,0.955100,0.370600,0.081400,9.662700,-154.750000,-34.000000,4034.500000
1730647677664,-2.563200,0.457100,0.979500,0.379600,0.077200,9.668600,-158.500000,-32.250000,4037.000000
1730647677684,-2.546900,0.481600,0.963200,0.370600,0.076000,9.667400,-160.000000,-34.500000,4033.250000
1730647677703,-2.567300,0.526500,0.910200,0.373000,0.079000,9.662100,-155.750000,-33.000000,4034.250000
1730647677724,-2.510200,0.461200,0.971400,0.380200,0.082000,9.660300,-158.750000,-34.250000,4033.500000
1730647677743,-2.555100,0.489700,0.955100,0.376600,0.079000,9.658500,-156.750000,-34.750000,4034.250000
1730647677764,-2.514200,0.542800,0.893800,0.364000,0.087400,9.650700,-152.000000,-36.500000,4029.500000
1730647677784,-2.481600,0.489700,0.975500,0.365800,0.083200,9.664500,-152.750000,-34.750000,4035.250000
1730647677803,-2.579500,0.510200,0.979500,0.367000,0.074200,9.662700,-152.000000,-31.250000,4033.500000
1730647677824,-2.510200,0.551000,0.914200,0.358000,0.080800,9.668000,-149.500000,-33.750000,4036.750000
1730647677844,-2.530600,0.510200,0.951000,0.362800,0.076000,9.659100,-151.500000,-31.750000,4033.000000
1730647677863,-2.473400,0.506100,0.955100,0.379600,0.085600,9.660900,-160.250000,-35.750000,4033.750000
1730647677883,-2.485700,0.465300,0.893800,0.370000,0.087400,9.662700,-154.500000,-36.500000,4034.500000
1730647677904,-2.453000,0.473400,0.959100,0.358600,0.077800,9.648300,-149.750000,-32.500000,4028.500000
1730647677923,-2.526500,0.514200,0.918300,0.380200,0.085000,9.663900,-158.750000,-35.500000,4035.000000
1730647677943,-2.591800,0.469300,0.955100,0.374800,0.083200,9.670400,-156.500000,-34.750000,4037.750000
1730647677964,-2.665300,0.493800,-1.008100,0.382000,0.078400,9.665100,-159.500000,-32.750000,4035.500000
1730647677983,-2.599900,0.522400,0.987700,0.373600,0.083200,9.665100,-156.000000,-34.750000,4035.500000
1730647678003,-2.653000,0.546900,0.971400,0.377200,0.080200,9.662100,-157.500000,-33.500000,4034.250000
1730647678023,-2.604000,0.469300,0.922400,0.372400,0.082000,9.659700,-157.000000,-32.000000,4035.000000
1730647678043,-2.571400,0.534600,-1.016300,0.367000,0.082000,9.659700,-153.250000,-34.250000,4033.250000
1730647678062,-2.653000,0.534600,0.938700,0.373000,0.086200,9.662100,-155.750000,-36.000000,4034.250000
1730647678083,-2.632600,0.530600,0.987700,0.371200,0.083800,9.672800,-152.500000,-38.000000,4038.500000
1730647678103,-2.628500,0.559100,-1.012200,0.364000,0.092200,9.658500,-152.000000,-38.500000,4032.750000
1730647678122,-2.612200,0.555100,0.975500,0.380200,0.083200,9.666800,-158.750000,-34.750000,4036.250000
1730647678143,-2.628500,0.502000,0.959100,0.373000,0.080200,9.668600,-156.500000,-33.750000,4032.000000
1730647678163,-2.555100,0.440800,0.975500,0.370600,0.083200,9.662700,-154.750000,-34.750000,4034.500000
1730647678182,-2.493800,0.481600,0.910200,0.377200,0.074200,9.656100,-157.500000,-31.000000,4031.750000
1730647678202,-2.632600,0.493800,0.975500,0.379000,0.078400,9.656700,-159.500000,-34.000000,4032.000000
1730647678223,-2.595900,0.546900,0.946900,0.370000,0.083200,9.659100,-154.500000,-34.750000,4033.000000
1730647678242,-2.612200,0.522400,0.951000,0.370600,0.083200,9.659700,-154.750000,-34.750000,4033.250000
1730647678261,-2.665300,0.518300,-1.040800,0.370000,0.082600,9.661500,-154.500000,-34.500000,4034.000000
1730647678282,-2.620400,0.493800,0.963200,0.364600,0.082000,9.653700,-152.250000,-34.250000,4030.750000
1730647678302,-2.706100,0.489700,-1.000000,0.373600,0.080200,9.658500,-156.000000,-33.500000,4032.750000
1730647678322,-2.571400,0.506100,0.955100,0.374200,0.082600,9.659100,-156.250000,-34.500000,4033.000000
1730647678342,-2.604000,0.497900,0.995900,0.367000,0.082000,9.650700,-153.250000,-34.250000,4029.500000
1730647678362,-2.522400,0.502000,0.971400,0.376000,0.082000,9.659700,-157.000000,-32.750000,4029.750000
1730647678382,-2.681600,0.522400,0.955100,0.370000,0.087400,9.654900,-154.500000,-36.500000,4031.250000
1730647678402,-2.624400,0.518300,0.959100,0.371800,0.084400,9.657300,-155.250000,-35.250000,4032.250000
1730647678422,-2.575500,0.481600,0.963200,0.371800,0.078400,9.662700,-154.000000,-34.500000,4031.750000
1730647678442,-2.616300,0.502000,0.934600,0.386700,0.081400,9.660300,-161.500000,-34.000000,4033.500000
1730647678462,-2.591800,0.514200,-1.004000,0.368200,0.082600,9.661500,-153.750000,-34.500000,4034.000000
1730647678481,-2.583600,0.502000,0.987700,0.378400,0.081400,9.663300,-156.500000,-34.250000,4037.000000
1730647678502,-2.620400,0.510200,0.930600,0.372400,0.076000,9.666800,-155.500000,-31.750000,4036.250000
1730647678522,-2.624400,0.440800,-1.008100,0.367600,0.084400,9.663900,-153.500000,-35.250000,4035.000000
1730647678541,-2.546900,0.493800,0.987700,0.371200,0.074800,9.655500,-156.250000,-35.000000,4030.250000
1730647678560,-2.583600,0.542800,0.946900,0.369400,0.075400,9.662700,-154.250000,-31.500000,4034.500000
1730647678581,-2.485700,0.461200,0.906100,0.376600,0.087400,9.661500,-157.250000,-36.500000,4034.000000
1730647678601,-2.534600,0.510200,0.959100,0.367000,0.080800,9.668000,-154.000000,-33.750000,4036.750000
1730647678620,-2.489700,0.534600,0.963200,0.369400,0.084400,9.662100,-154.250000,-35.250000,4034.250000
1730647678641,-2.583600,0.575500,-1.000000,0.368200,0.082000,9.666800,-153.750000,-34.250000,4036.250000
1730647678661,-2.612200,0.489700,0.971400,0.371200,0.078400,9.662100,-155.000000,-32.750000,4034.250000
1730647678681,-2.624400,0.538700,0.979500,0.377800,0.082000,9.663900,-157.750000,-34.250000,4035.000000
1730647678701,-2.608100,0.551000,0.991800,0.368800,0.080800,9.664500,-154.000000,-33.750000,4035.250000
1730647678721,-2.563200,0.526500,0.979500,0.376000,0.091000,9.659700,-157.000000,-38.000000,4033.250000
1730647678741,-2.530600,0.571400,0.946900,0.372400,0.082600,9.657300,-155.500000,-34.500000,4032.250000
1730647678761,-2.481600,0.506100,0.955100,0.368200,0.076000,9.656700,-157.000000,-35.000000,4034.250000
1730647678781,-2.628500,0.551000,-1.028500,0.372400,0.080200,9.662700,-155.500000,-33.500000,4034.500000
1730647678800,-2.510200,0.485700,0.922400,0.367000,0.083200,9.658500,-153.250000,-34.750000,4032.750000
1730647678820,-2.518300,0.481600,0.967300,0.371200,0.077800,9.660900,-154.500000,-35.500000,4038.750000
1730647678840,-2.551000,0.551000,0.942800,0.368200,0.080200,9.665100,-153.750000,-33.500000,4035.500000
1730647678860,-2.575500,0.522400,0.967300,0.360400,0.071800,9.660900,-150.500000,-30.000000,4033.750000
1730647678880,-2.514200,0.506100,0.983600,0.373000,0.081400,9.659700,-152.750000,-31.750000,4033.500000
1730647678900,-2.608100,0.510200,0.995900,0.373600,0.088000,9.660900,-156.000000,-36.750000,4033.750000
1730647678920,-2.591800,0.579500,0.987700,0.374200,0.077800,9.661500,-156.250000,-32.500000,4034.000000
1730647678940,-2.575500,0.510200,0.955100,0.373000,0.080800,9.651900,-157.750000,-33.750000,4030.000000
1730647678959,-2.612200,0.538700,-1.016300,0.371200,0.086800,9.662100,-155.000000,-36.250000,4034.250000
1730647678980,-2.571400,0.510200,0.979500,0.376600,0.079600,9.664500,-157.250000,-33.250000,4035.250000
1730647678999,-2.608100,0.510200,-1.032600,0.374800,0.082600,9.654300,-156.500000,-34.500000,4031.000000
1730647679020,-2.608100,0.534600,0.959100,0.374200,0.079600,9.655500,-156.250000,-33.250000,4031.500000
1730647679040,-2.612200,0.530600,-1.044800,0.365800,0.084400,9.654300,-152.750000,-35.250000,4031.000000
1730647679060,-2.571400,0.534600,0.926500,0.367600,0.083200,9.654900,-153.500000,-34.750000,4031.250000
1730647679079,-2.502000,0.489700,0.963200,0.375400,0.080800,9.659100,-156.750000,-33.750000,4033.000000
1730647679099,-2.542800,0.497900,0.897900,0.375400,0.088600,9.659100,-156.750000,-35.250000,4035.500000
1730647679119,-2.510200,0.518300,0.922400,0.370000,0.080200,9.654300,-154.500000,-33.500000,4031.000000
1730647679139,-2.530600,0.502000,0.955100,0.374800,0.092200,9.661500,-156.500000,-38.500000,4034.000000
1730647679158,-2.522400,0.534600,0.938700,0.368800,0.079600,9.652500,-151.000000,-36.250000,4028.500000
1730647679179,-2.563200,0.497900,0.910200,0.367000,0.080200,9.659700,-153.250000,-33.500000,4033.250000
1730647679199,-2.530600,0.477500,0.963200,0.368800,0.085600,9.654900,-154.000000,-35.750000,4031.250000
1730647679219,-2.559100,0.461200,0.951000,0.366400,0.077200,9.657300,-154.500000,-34.750000,4032.750000
1730647679239,-2.485700,0.546900,0.971400,0.370600,0.086800,9.662700,-154.750000,-36.250000,4034.500000
1730647679259,-2.530600,0.489700,0.938700,0.373000,0.082600,9.660900,-155.750000,-34.500000,4033.750000
1730647679279,-2.546900,0.530600,0.942800,0.370000,0.078400,9.666200,-156.000000,-36.500000,4036.500000
1730647679299,-2.546900,0.477500,0.959100,0.370600,0.089200,9.662700,-154.750000,-37.250000,4034.500000
1730647679319,-2.551000,0.497900,0.951000,0.374800,0.081400,9.653700,-156.500000,-34.000000,4030.750000
1730647679338,-2.620400,0.506100,0.991800,0.365800,0.077800,9.662700,-151.500000,-32.500000,4034.500000
1730647679357,-2.653000,0.546900,0.995900,0.370600,0.092200,9.665600,-154.750000,-38.500000,4035.750000
1730647679378,-2.591800,0.555100,-1.008100,0.368800,0.079000,9.666800,-154.000000,-33.000000,4036.250000
1730647679398,-2.595900,0.493800,-1.028500,0.370000,0.079000,9.660300,-154.500000,-33.000000,4033.500000
1730647679418,-2.657100,0.546900,0.979500,0.370600,0.079600,9.663900,-154.750000,-33.250000,4035.000000
1730647679438,-2.628500,0.493800,0.987700,0.373000,0.082000,9.659700,-155.750000,-34.250000,4033.250000
1730647679457,-2.591800,0.457100,0.987700,0.373000,0.079000,9.659700,-155.750000,-33.000000,4033.250000
1730647679478,-2.591800,0.518300,0.987700,0.376600,0.077200,9.656100,-157.250000,-32.250000,4031.750000
1730647679498,-2.542800,0.473400,-1.004000,0.377200,0.082000,9.654900,-153.250000,-32.750000,4031.000000
1730647679518,-2.665300,0.567300,0.951000,0.373000,0.088600,9.666200,-155.750000,-37.000000,4036.000000
1730647679538,-2.648900,0.510200,0.963200,0.365800,0.083800,9.660900,-152.750000,-35.000000,4033.750000
1730647679558,-2.620400,0.522400,0.995900,0.379600,0.089800,9.669200,-158.500000,-35.500000,4033.500000
1730647679578,-2.530600,0.510200,0.967300,0.377200,0.086800,9.651900,-157.500000,-36.250000,4030.000000
1730647679598,-2.436700,0.481600,0.934600,0.379600,0.080200,9.659700,-158.500000,-33.500000,4033.250000
1730647679618,-2.559100,0.538700,0.918300,0.374800,0.082600,9.660900,-156.250000,-34.750000,4035.500000
1730647679637,-2.579500,0.526500,0.967300,0.374800,0.085000,9.661500,-156.500000,-35.500000,4034.000000
1730647679657,-2.457100,0.522400,0.906100,0.376600,0.085600,9.651900,-157.250000,-35.750000,4030.000000
1730647679677,-2.526500,0.530600,0.967300,0.374800,0.078400,9.660900,-155.750000,-35.500000,4034.000000
1730647679697,-2.453000,0.514200,0.930600,0.373600,0.077200,9.657900,-156.000000,-32.250000,4032.500000
1730647679717,-2.514200,0.473400,0.971400,0.369400,0.079600,9.662100,-154.250000,-33.250000,4034.250000
1730647679737,-2.534600,0.506100,0.934600,0.368200,0.082000,9.662100,-153.750000,-34.250000,4034.250000
1730647679757,-2.575500,0.534600,-1.004000,0.361000,0.086200,9.659700,-150.750000,-36.000000,4033.250000
1730647679777,-2.563200,0.502000,0.995900,0.379000,0.085600,9.657300,-158.250000,-35.750000,4032.250000
1730647679797,-2.567300,0.555100,0.938700,0.371200,0.083800,9.654900,-155.000000,-35.000000,4031.250000
1730647679817,-2.583600,0.481600,0.922400,0.309500,0.138300,9.730900,-129.250000,-57.750000,4063.000000
1730647679836,-2.502000,0.481600,0.963200,0.341200,0.116700,9.684800,-142.500000,-112.750000,4069.750000
1730647679857,-2.481600,0.473400,0.914200,0.350200,0.101700,9.671000,-146.250000,-42.500000,4038.000000
1730647679876,-2.551000,0.514200,-1.008100,0.448400,0.008300,9.569300,-187.250000,-3.500000,3995.500000
1730647679895,-2.620400,0.526500,0.975500,0.313700,0.140100,9.728500,-190.000000,-1.750000,3994.250000
1730647679915,-2.571400,0.522400,0.959100,0.322100,0.131100,9.701600,-134.500000,-54.750000,4050.750000
1730647679935,-2.587700,0.534600,0.979500,0.396300,0.040700,9.626100,-165.500000,-17.000000,4019.250000
1730647679956,-2.587700,0.497900,0.979500,0.345400,0.105900,9.677000,-153.000000,-34.750000,4036.250000
1730647679975,-2.567300,0.502000,-1.004000,0.366400,0.081400,9.663300,-153.000000,-34.000000,4034.750000
1730647679996,-2.526500,0.493800,0.967300,0.365800,0.079600,9.669200,-152.750000,-33.250000,4037.250000
1730647680016,-2.530600,0.485700,0.963200,0.373000,0.072400,9.655500,-155.250000,-37.000000,4037.750000
1730647680035,-2.461200,0.522400,0.918300,0.380200,0.082000,9.658500,-158.750000,-34.250000,4032.750000
1730647680055,-2.424400,0.518300,0.955100,0.373000,0.081400,9.660300,-155.750000,-34.000000,4033.500000
1730647680075,-2.612200,0.485700,0.959100,0.370000,0.086800,9.653100,-152.500000,-32.750000,4030.500000
1730647680096,-2.555100,0.502000,0.951000,0.365800,0.079000,9.651900,-152.750000,-33.000000,4030.000000
1730647680116,-2.657100,0.551000,0.955100,0.375400,0.077200,9.659100,-156.750000,-32.250000,4033.000000
1730647680135,-2.530600,0.473400,0.967300,0.370000,0.089200,9.660300,-154.500000,-37.250000,4033.500000
1730647680154,-2.477500,0.465300,0.922400,0.379600,0.088600,9.659100,-158.500000,-37.000000,4033.000000
1730647680175,-2.506100,0.489700,0.951000,0.376600,0.088600,9.662700,-157.250000,-37.000000,4034.500000
1730647680195,-2.518300,0.497900,0.963200,0.370600,0.080200,9.672800,-154.750000,-33.500000,4038.750000
1730647680215,-2.563200,0.522400,0.926500,0.369400,0.081400,9.664500,-154.250000,-34.000000,4035.250000
1730647680235,-2.493800,0.485700,0.951000,0.370600,0.083200,9.660300,-154.750000,-30.500000,4033.500000
1730647680255,-2.575500,0.514200,0.983600,0.367600,0.082600,9.661500,-153.500000,-34.500000,4034.000000
1730647680274,-2.608100,0.546900,0.938700,0.368200,0.076000,9.656700,-153.750000,-31.750000,4032.000000
1730647680294,-2.657100,0.551000,0.979500,0.379000,0.077800,9.660300,-157.500000,-36.000000,4034.000000
1730647680314,-2.571400,0.514200,-1.012200,0.374200,0.076600,9.660900,-156.250000,-32.000000,4033.750000
1730647680335,-2.461200,0.481600,0.918300,0.367600,0.080800,9.658500,-153.500000,-33.750000,4032.750000
1730647680354,-2.542800,0.493800,0.983600,0.375400,0.077200,9.654900,-155.250000,-34.750000,4029.750000
1730647680374,-2.473400,0.493800,0.955100,0.371800,0.080800,9.654300,-155.250000,-33.750000,4031.000000
1730647680393,-2.530600,0.538700,0.951000,0.370000,0.077200,9.662700,-154.500000,-32.250000,4034.500000
1730647680413,-2.473400,0.485700,0.910200,0.373600,0.075400,9.660300,-152.750000,-32.000000,4033.750000
1730647680434,-2.632600,0.489700,-1.004000,0.372400,0.081400,9.666200,-155.500000,-34.000000,4036.000000
1730647680453,-2.661200,0.546900,0.959100,0.370600,0.082600,9.662100,-154.750000,-34.500000,4034.250000
1730647680473,-2.518300,0.469300,0.910200,0.374800,0.082600,9.671600,-157.750000,-34.500000,4038.250000
1730647680494,-2.514200,0.542800,0.971400,0.376600,0.072400,9.663300,-157.250000,-30.250000,4034.750000
1730647680514,-2.481600,0.457100,0.971400,0.367600,0.080800,9.652500,-153.500000,-33.750000,4030.250000
1730647680533,-2.542800,0.453000,0.889700,0.361600,0.089200,9.659700,-151.000000,-37.250000,4033.250000
1730647680554,-2.608100,0.551000,0.959100,0.372400,0.086800,9.665100,-155.500000,-36.250000,4035.500000
1730647680574,-2.510200,0.493800,0.942800,0.374800,0.078400,9.657300,-156.500000,-32.750000,4032.250000
1730647680594,-2.583600,0.522400,0.946900,0.372400,0.080200,9.659100,-155.500000,-33.500000,4033.000000
1730647680614,-2.530600,0.477500,0.955100,0.367600,0.080800,9.657900,-153.500000,-33.750000,4032.500000
1730647680633,-2.542800,0.469300,0.938700,0.376600,0.080800,9.653100,-153.750000,-34.250000,4036.000000
1730647680654,-2.538700,0.542800,0.934600,0.365200,0.080800,9.663900,-152.500000,-33.750000,4035.000000
1730647680673,-2.477500,0.518300,0.934600,0.367000,0.084400,9.662700,-153.250000,-35.250000,4034.500000
1730647680693,-2.514200,0.522400,0.975500,0.371200,0.086800,9.670400,-151.000000,-34.250000,4039.000000
1730647680712,-2.526500,0.473400,0.938700,0.372400,0.082000,9.652500,-155.500000,-34.250000,4030.250000
1730647680733,-2.493800,0.493800,0.881600,0.365200,0.074200,9.665100,-152.500000,-31.000000,4035.500000
1730647680753,-2.526500,0.575500,0.995900,0.370600,0.082600,9.672800,-155.750000,-34.000000,4039.750000
1730647680773,-2.591800,0.510200,-1.004000,0.364000,0.079000,9.659700,-152.000000,-33.000000,4033.250000
1730647680792,-2.591800,0.493800,-1.012200,0.374800,0.077200,9.662700,-156.500000,-32.250000,4034.500000
1730647680812,-2.583600,0.518300,0.983600,0.368200,0.080200,9.659100,-155.000000,-33.750000,4033.000000
1730647680832,-2.583600,0.546900,0.995900,0.366400,0.076600,9.670400,-153.000000,-32.000000,4037.750000
1730647680853,-2.604000,0.542800,-1.020400,0.373000,0.080800,9.665600,-155.750000,-33.750000,4035.750000
1730647680872,-2.514200,0.473400,0.987700,0.368800,0.079600,9.651900,-154.000000,-33.250000,4030.000000
1730647680893,-2.542800,0.436700,0.967300,0.373000,0.078400,9.661500,-155.750000,-32.750000,4034.000000
1730647680912,-2.538700,0.493800,0.946900,0.372400,0.077800,9.663900,-155.500000,-32.500000,4035.000000
1730647680933,-2.526500,0.567300,0.979500,0.367600,0.088600,9.665100,-153.500000,-37.000000,4035.500000
1730647680951,-2.453000,0.534600,0.881600,0.373000,0.080200,9.665600,-155.750000,-33.500000,4035.750000
1730647680972,-2.551000,0.534600,0.934600,0.374200,0.082000,9.669200,-156.250000,-33.000000,4040.000000
1730647680992,-2.514200,0.481600,0.938700,0.370000,0.082600,9.659100,-154.500000,-34.500000,4033.000000
1730647681012,-2.448900,0.506100,0.897900,0.375400,0.077800,9.660900,-156.750000,-32.500000,4033.750000
1730647681032,-2.583600,0.567300,0.983600,0.362200,0.077200,9.650100,-154.000000,-34.000000,4029.500000
1730647681052,-2.616300,0.546900,-1.008100,0.373000,0.089800,9.659100,-155.750000,-37.500000,4033.000000
1730647681072,-2.591800,0.502000,0.942800,0.369400,0.091000,9.662100,-154.250000,-38.000000,4034.250000
1730647681091,-2.457100,0.502000,0.959100,0.370000,0.081400,9.669800,-156.750000,-35.750000,4040.250000
1730647681112,-2.583600,0.448900,0.946900,0.374200,0.090400,9.661500,-156.250000,-37.750000,4034.000000
1730647681131,-2.502000,0.485700,0.934600,0.373000,0.077800,9.657900,-155.750000,-32.500000,4032.500000
1730647681152,-2.506100,0.534600,0.942800,0.361000,0.089200,9.663900,-158.000000,-34.000000,4034.250000
1730647681172,-2.436700,0.485700,0.942800,0.365200,0.087400,9.654300,-152.500000,-36.500000,4031.000000
1730647681191,-2.530600,0.518300,0.942800,0.371800,0.079000,9.668000,-155.250000,-33.000000,4036.750000
1730647681212,-2.477500,0.497900,0.934600,0.372400,0.086200,9.660900,-155.500000,-36.000000,4033.750000
1730647681231,-2.473400,0.510200,0.951000,0.368200,0.084400,9.665100,-153.750000,-35.250000,4035.500000
1730647681250,-2.506100,0.579500,0.959100,0.372400,0.083800,9.656700,-155.500000,-35.000000,4032.000000
1730647681271,-2.604000,0.530600,0.930600,0.373000,0.085600,9.653700,-155.750000,-35.750000,4030.750000
1730647681291,-2.567300,0.526500,0.967300,0.364600,0.081400,9.660900,-152.250000,-34.000000,4033.750000
1730647681311,-2.481600,0.416300,0.934600,0.371800,0.080800,9.666200,-155.250000,-33.750000,4029.750000
1730647681331,-2.559100,0.485700,0.930600,0.362800,0.082600,9.659700,-151.500000,-34.500000,4033.250000
1730647681351,-2.563200,0.514200,0.959100,0.370000,0.091000,9.659700,-154.500000,-38.000000,4033.250000
1730647681371,-2.404000,0.571400,0.946900,0.376600,0.080800,9.662700,-156.000000,-34.750000,4037.250000
1730647681391,-2.432600,0.477500,0.918300,0.367000,0.074800,9.659700,-153.250000,-31.250000,4033.250000
1730647681411,-2.514200,0.506100,0.967300,0.373000,0.090400,9.667400,-155.750000,-37.750000,4036.500000
1730647681431,-2.599900,0.526500,-1.012200,0.367000,0.080800,9.669800,-153.500000,-36.250000,4032.500000
1730647681451,-2.575500,0.555100,0.942800,0.373600,0.079000,9.662100,-156.000000,-33.000000,4034.250000
1730647681471,-2.632600,0.538700,-1.008100,0.370600,0.075400,9.668000,-154.750000,-31.500000,4036.750000
1730647681491,-2.616300,0.514200,0.959100,0.378400,0.081400,9.657300,-158.000000,-34.250000,4038.250000
1730647681510,-2.624400,0.522400,-1.000000,0.368200,0.080800,9.664500,-153.750000,-33.750000,4035.250000
1730647681531,-2.653000,0.514200,-1.000000,0.370600,0.079600,9.660300,-154.750000,-33.250000,4033.500000
1730647681550,-2.559100,0.579500,0.942800,0.373600,0.079000,9.663900,-155.000000,-35.250000,4035.000000
1730647681570,-2.608100,0.575500,-1.016300,0.382600,0.083800,9.670400,-159.750000,-35.000000,4037.750000
1730647681589,-2.567300,0.555100,-1.032600,0.366400,0.085000,9.654900,-153.000000,-35.500000,4031.250000
1730647681610,-2.542800,0.497900,0.938700,0.368200,0.083800,9.674000,-153.750000,-35.000000,4039.250000
1730647681629,-2.444800,0.448900,0.893800,0.373600,0.073000,9.657300,-156.000000,-30.500000,4032.250000
1730647681650,-2.497900,0.506100,0.906100,0.368200,0.085000,9.669800,-153.750000,-35.500000,4037.500000
1730647681670,-2.481600,0.485700,0.910200,0.368200,0.083200,9.657900,-153.750000,-34.750000,4032.500000
1730647681690,-2.530600,0.424400,0.971400,0.373000,0.080200,9.651900,-155.750000,-33.500000,4030.000000
1730647681709,-2.636700,0.534600,0.979500,0.376600,0.085000,9.665600,-157.250000,-35.750000,4027.250000
1730647681730,-2.648900,0.571400,-1.004000,0.370600,0.082600,9.668000,-154.750000,-34.500000,4036.750000
1730647681750,-2.599900,0.493800,0.979500,0.367000,0.089800,9.659100,-153.250000,-37.500000,4033.000000
1730647681770,-2.591800,0.518300,-1.008100,0.367000,0.086200,9.653700,-157.250000,-32.250000,4035.000000
1730647681790,-2.493800,0.518300,0.930600,0.363400,0.086200,9.658500,-151.750000,-36.000000,4032.750000
1730647681810,-2.514200,0.416300,0.942800,0.367600,0.077800,9.659700,-153.500000,-32.500000,4033.250000
1730647681830,-2.559100,0.502000,-1.004000,0.382600,0.073600,9.678800,-154.750000,-36.500000,4032.500000
1730647681848,-2.608100,0.559100,0.975500,0.370600,0.082000,9.667400,-154.750000,-34.250000,4036.500000
1730647681869,-2.591800,0.510200,0.918300,0.376600,0.082000,9.660300,-157.250000,-34.250000,4033.500000
1730647681888,-2.628500,0.526500,0.975500,0.376000,0.076600,9.663300,-153.000000,-33.500000,4035.000000
1730647681909,-2.583600,0.526500,0.951000,0.372400,0.088000,9.665600,-155.500000,-36.750000,4035.750000
1730647681929,-2.612200,0.497900,0.963200,0.364000,0.083800,9.646500,-152.000000,-35.000000,4027.750000
1730647681949,-2.497900,0.493800,0.914200,0.369400,0.081400,9.647700,-154.250000,-34.000000,4028.250000
1730647681968,-2.497900,0.510200,0.959100,0.378400,0.078400,9.660300,-158.000000,-32.750000,4033.500000
1730647681989,-2.551000,0.493800,0.979500,0.370600,0.083800,9.665600,-154.750000,-35.000000,4035.750000
1730647682008,-2.473400,0.506100,0.910200,0.367600,0.079600,9.672800,-153.500000,-33.250000,4038.750000
1730647682028,-2.563200,0.489700,0.951000,0.372400,0.079000,9.660300,-155.500000,-33.000000,4033.500000
1730647682049,-2.461200,0.538700,0.902000,0.364000,0.086200,9.657900,-152.000000,-36.000000,4032.000000
1730647682069,-2.559100,0.477500,0.951000,0.376000,0.083200,9.659100,-157.000000,-34.750000,4033.000000
1730647682088,-2.510200,0.489700,0.926500,0.373000,0.076000,9.663900,-155.750000,-31.750000,4035.000000
1730647682108,-2.477500,0.485700,0.902000,0.373000,0.083200,9.655500,-158.500000,-34.500000,4033.000000
1730647682128,-2.453000,0.530600,0.930600,0.372400,0.087400,9.669200,-155.500000,-36.500000,4037.250000
1730647682148,-2.538700,0.506100,0.942800,0.366400,0.076000,9.661500,-153.000000,-31.750000,4034.000000
1730647682168,-2.583600,0.514200,0.991800,0.372400,0.087400,9.656700,-154.750000,-34.500000,4032.500000
1730647682188,-2.648900,0.534600,-1.032600,0.365800,0.077800,9.647700,-152.750000,-32.500000,4028.250000
1730647682208,-2.612200,0.563200,-1.004000,0.359800,0.074800,9.659700,-150.250000,-31.250000,4033.250000
1730647682228,-2.461200,0.502000,0.938700,0.371200,0.080200,9.665100,-151.750000,-37.000000,4035.750000
1730647682247,-2.571400,0.530600,0.963200,0.363400,0.074800,9.668600,-151.750000,-31.250000,4037.000000
1730647682267,-2.502000,0.526500,-1.016300,0.380200,0.085600,9.665100,-158.750000,-35.750000,4035.500000
1730647682287,-2.632600,0.583600,0.967300,0.365200,0.080800,9.674000,-156.500000,-33.750000,4039.250000
1730647682307,-2.571400,0.530600,0.963200,0.370000,0.085000,9.666200,-154.500000,-35.500000,4036.000000
1730647682328,-2.591800,0.510200,0.967300,0.376600,0.074800,9.666800,-157.250000,-31.250000,4036.250000
1730647682347,-2.628500,0.530600,0.979500,0.368200,0.081400,9.651900,-153.750000,-34.000000,4030.000000
1730647682367,-2.530600,0.510200,0.995900,0.368800,0.083200,9.659100,-154.000000,-34.750000,4033.000000
1730647682387,-2.542800,0.542800,0.987700,0.368200,0.078400,9.654900,-153.750000,-32.750000,4031.250000
1730647682406,-2.502000,0.502000,0.938700,0.373000,0.079600,9.659700,-155.750000,-33.250000,4033.250000
1730647682426,-2.526500,0.514200,0.910200,0.371800,0.077200,9.658500,-155.250000,-32.250000,4032.750000
1730647682447,-2.522400,0.465300,0.959100,0.368800,0.083200,9.658500,-154.000000,-35.500000,4041.250000
1730647682467,-2.502000,0.587700,0.914200,0.369400,0.084400,9.667400,-154.250000,-35.250000,4036.500000
1730647682487,-2.522400,0.510200,0.918300,0.371200,0.073600,9.659700,-155.000000,-30.750000,4033.250000
1730647682507,-2.612200,0.497900,0.975500,0.372400,0.085000,9.668000,-155.250000,-32.750000,4032.250000
1730647682527,-2.632600,0.502000,-1.000000,0.376600,0.086200,9.665100,-157.250000,-36.000000,4035.500000
1730647682547,-2.632600,0.518300,0.987700,0.368200,0.075400,9.662100,-153.750000,-31.500000,4034.250000
1730647682567,-2.587700,0.493800,0.971400,0.360400,0.084400,9.654900,-155.500000,-35.750000,4032.500000
1730647682587,-2.510200,0.538700,0.922400,0.366400,0.083800,9.669200,-153.000000,-35.000000,4037.250000
1730647682607,-2.551000,0.485700,0.979500,0.372400,0.081400,9.659100,-155.500000,-34.000000,4033.000000
1730647682627,-2.477500,0.497900,0.967300,0.367600,0.085600,9.657900,-155.000000,-34.000000,4035.500000
1730647682645,-2.489700,0.489700,0.918300,0.366400,0.077800,9.651300,-153.000000,-32.500000,4029.750000
1730647682665,-2.493800,0.506100,0.938700,0.372400,0.084400,9.663900,-155.500000,-35.250000,4035.000000
1730647682685,-2.469300,0.497900,0.963200,0.373600,0.080800,9.655500,-156.000000,-33.750000,4031.500000
1730647682706,-2.522400,0.538700,0.946900,0.374200,0.087400,9.654900,-156.250000,-36.500000,4031.250000
1730647682726,-2.502000,0.493800,0.946900,0.371200,0.077800,9.660300,-155.000000,-32.500000,4033.500000
1730647682746,-2.563200,0.530600,0.959100,0.367600,0.082000,9.660900,-153.500000,-34.250000,4033.750000
1730647682766,-2.567300,0.502000,0.942800,0.378400,0.085600,9.664500,-158.000000,-35.750000,4035.250000
1730647682785,-2.612200,0.583600,-1.008100,0.369400,0.075400,9.660300,-154.250000,-31.500000,4034.000000
1730647682806,-2.526500,0.506100,0.918300,0.373000,0.082600,9.662700,-155.750000,-34.500000,4034.500000
1730647682825,-2.559100,0.526500,-1.020400,0.367000,0.083800,9.659100,-153.250000,-35.000000,4033.000000
1730647682845,-2.620400,0.526500,0.995900,0.377800,0.080800,9.654300,-155.000000,-31.750000,4037.250000
1730647682865,-2.477500,0.506100,0.926500,0.365200,0.083200,9.658500,-152.500000,-34.750000,4032.750000
1730647682886,-2.546900,0.481600,0.918300,0.372400,0.079000,9.657300,-155.500000,-33.000000,4032.250000
1730647682905,-2.608100,0.530600,0.918300,0.368200,0.073600,9.668000,-152.000000,-34.250000,4035.250000
1730647682926,-2.636700,0.497900,-1.040800,0.368200,0.085600,9.656700,-153.750000,-35.750000,4032.000000
1730647682944,-2.665300,0.522400,0.991800,0.373000,0.083800,9.658500,-155.750000,-35.000000,4032.750000
1730647682965,-2.620400,0.514200,-1.012200,0.373600,0.082600,9.657900,-153.250000,-33.500000,4033.250000
1730647682984,-2.604000,0.559100,0.991800,0.370600,0.088000,9.651900,-154.750000,-36.750000,4030.000000
1730647683004,-2.571400,0.518300,0.987700,0.374800,0.085000,9.655500,-156.500000,-35.500000,4031.500000
1730647683024,-2.534600,0.542800,0.930600,0.365200,0.079600,9.660900,-151.250000,-33.250000,4033.750000
1730647683045,-2.457100,0.497900,0.930600,0.371800,0.083800,9.672200,-155.250000,-35.000000,4038.500000
1730647683065,-2.518300,0.473400,0.975500,0.373600,0.080800,9.651300,-156.000000,-33.750000,4029.750000
1730647683084,-2.518300,0.526500,0.963200,0.365800,0.081400,9.658500,-152.750000,-34.000000,4032.750000
1730647683105,-2.497900,0.510200,0.938700,0.368800,0.077800,9.675200,-154.000000,-32.500000,4039.750000
1730647683125,-2.514200,0.465300,0.967300,0.369400,0.077200,9.666200,-154.250000,-32.250000,4036.000000
1730647683145,-2.571400,0.546900,-1.028500,0.366400,0.088000,9.662700,-153.000000,-36.750000,4034.500000
1730647683165,-2.583600,0.485700,0.971400,0.368800,0.076000,9.662700,-154.000000,-31.750000,4034.500000
1730647683183,-2.502000,0.518300,0.955100,0.370000,0.080800,9.667400,-154.500000,-35.250000,4033.500000
1730647683204,-2.653000,0.518300,-1.024400,0.374800,0.088000,9.658500,-156.500000,-36.750000,4032.750000
1730647683224,-2.640800,0.575500,-1.016300,0.371800,0.080200,9.666200,-155.250000,-33.500000,4036.000000
1730647683243,-2.628500,0.559100,0.975500,0.364000,0.082000,9.666200,-152.000000,-38.500000,4039.000000
1730647683264,-2.583600,0.579500,0.902000,0.377200,0.080200,9.662700,-157.500000,-33.500000,4034.500000
1730647683284,-2.559100,0.534600,0.971400,0.380200,0.090400,9.662100,-158.750000,-37.750000,4034.250000
1730647683304,-2.599900,0.526500,0.991800,0.361000,0.079000,9.661500,-155.750000,-37.250000,4035.750000
1730647683324,-2.657100,0.546900,-1.004000,0.371200,0.082000,9.662700,-155.000000,-34.250000,4034.500000
1730647683343,-2.571400,0.514200,0.975500,0.369400,0.074200,9.660300,-154.250000,-31.000000,4033.500000
1730647683364,-2.612200,0.514200,0.975500,0.362800,0.086200,9.808800,-152.750000,-33.500000,4033.500000
1730647683384,-2.563200,0.497900,0.918300,0.364000,0.088000,9.663900,-152.000000,-36.750000,4035.000000
1730647683404,-2.391800,0.481600,0.926500,0.373600,0.073600,9.662100,-156.000000,-30.750000,4034.250000
1730647683424,-2.502000,0.510200,0.967300,0.362800,0.075400,9.669200,-151.500000,-31.500000,4037.250000
1730647683443,-2.518300,0.465300,0.951000,0.374200,0.090400,9.666200,-156.250000,-37.750000,4036.000000
1730647683463,-2.518300,0.493800,0.910200,0.368800,0.079000,9.659100,-154.000000,-33.000000,4033.000000
1730647683483,-2.571400,0.497900,0.975500,0.370600,0.081400,9.657300,-154.750000,-34.000000,4032.250000
1730647683502,-2.481600,0.469300,0.946900,0.374800,0.085000,9.648900,-156.500000,-35.500000,4028.750000
1730647683523,-2.632600,0.653000,0.971400,0.367600,0.077800,9.657900,-153.500000,-32.500000,4033.750000
1730647683543,-2.595900,0.473400,0.942800,0.368200,0.088600,9.665600,-153.750000,-37.000000,4035.750000
1730647683562,-2.518300,0.510200,0.975500,0.366400,0.079600,9.661500,-153.000000,-33.250000,4034.000000
1730647683583,-2.555100,0.510200,0.926500,0.371800,0.084400,9.664500,-152.250000,-36.000000,4030.500000
1730647683603,-2.587700,0.522400,-1.000000,0.364000,0.079000,9.653700,-152.000000,-33.000000,4030.750000
1730647683622,-2.526500,0.551000,0.963200,0.365200,0.079600,9.665600,-152.500000,-33.250000,4035.750000
1730647683643,-2.546900,0.514200,0.869300,0.368800,0.086200,9.656100,-152.750000,-35.000000,4029.500000
1730647683663,-2.510200,0.530600,0.959100,0.364600,0.089200,9.663300,-152.250000,-37.250000,4034.750000
1730647683683,-2.555100,0.526500,0.963200,0.382000,0.083800,9.661500,-159.500000,-35.000000,4034.000000
1730647683703,-2.628500,0.485700,0.942800,0.368800,0.085600,9.660300,-154.250000,-34.000000,4037.750000
1730647683723,-2.616300,0.538700,0.967300,0.370600,0.077200,9.663300,-154.750000,-32.250000,4034.750000
1730647683742,-2.595900,0.546900,-1.004000,0.371200,0.084400,9.663300,-155.000000,-35.250000,4034.750000
1730647683762,-2.628500,0.575500,0.979500,0.365200,0.082600,9.657300,-154.500000,-34.750000,4032.250000
1730647683781,-2.661200,0.489700,0.975500,0.365800,0.082000,9.656100,-152.750000,-34.250000,4031.750000
1730647683802,-2.546900,0.534600,0.951000,0.368800,0.089200,9.654900,-154.000000,-37.250000,4031.250000
1730647683822,-2.530600,0.506100,-1.016300,0.370000,0.088000,9.660900,-154.500000,-36.750000,4033.750000
1730647683841,-2.538700,0.579500,0.967300,0.377200,0.083800,9.665600,-157.500000,-35.000000,4035.750000
1730647683862,-2.640800,0.497900,0.983600,0.375400,0.088600,9.675200,-156.750000,-37.000000,4039.750000
1730647683882,-2.530600,0.526500,0.959100,0.368800,0.085000,9.659100,-154.000000,-35.500000,4033.000000
1730647683902,-2.563200,0.489700,0.942800,0.371200,0.081400,9.660900,-155.000000,-34.000000,4033.750000
1730647683922,-2.526500,0.502000,0.995900,0.372400,0.082000,9.657300,-155.500000,-35.750000,4029.250000
1730647683942,-2.534600,0.530600,0.897900,0.370600,0.084400,9.657900,-154.750000,-35.250000,4032.500000
1730647683962,-2.534600,0.526500,0.963200,0.368200,0.079600,9.662100,-153.750000,-33.250000,4034.250000
1730647683982,-2.583600,0.506100,0.930600,0.370600,0.086800,9.659100,-153.500000,-35.500000,4032.000000
1730647684001,-2.571400,0.514200,-1.024400,0.374800,0.085600,9.657900,-156.500000,-35.750000,4032.500000
1730647684021,-2.620400,0.510200,0.995900,0.373600,0.083200,9.658500,-156.000000,-34.750000,4032.750000
1730647684040,-2.595900,0.546900,0.987700,0.370600,0.083800,9.658500,-153.500000,-37.000000,4037.000000
1730647684060,-2.591800,0.518300,0.987700,0.371200,0.082000,9.654300,-155.000000,-34.250000,4031.000000
1730647684080,-2.522400,0.546900,0.946900,0.371800,0.079000,9.668000,-155.250000,-33.000000,4036.750000
1730647684101,-2.575500,0.579500,-1.012200,0.370000,0.084400,9.657900,-155.000000,-34.750000,4032.500000
1730647684120,-2.685700,0.469300,0.967300,0.371800,0.080200,9.657300,-155.250000,-33.500000,4032.250000
1730647684141,-2.599900,0.526500,-1.016300,0.371800,0.082000,9.660900,-155.250000,-34.250000,4033.750000
1730647684160,-2.457100,0.522400,0.975500,0.368200,0.080800,9.672200,-153.750000,-33.750000,4038.500000
1730647684180,-2.477500,0.497900,0.946900,0.376000,0.081400,9.651900,-157.000000,-34.000000,4030.000000
1730647684200,-2.542800,0.551000,0.987700,0.370000,0.076600,9.673400,-154.500000,-32.000000,4039.000000
1730647684221,-2.587700,0.530600,0.963200,0.369400,0.081400,9.670400,-154.250000,-34.000000,4037.750000
1730647684241,-2.510200,0.571400,0.946900,0.370600,0.078400,9.663300,-154.750000,-32.750000,4034.750000
1730647684261,-2.567300,0.559100,0.971400,0.363400,0.083800,9.659700,-151.750000,-34.750000,4039.000000
1730647684281,-2.477500,0.502000,0.942800,0.373000,0.083800,9.669800,-155.750000,-35.000000,4037.500000
1730647684301,-2.583600,0.485700,0.979500,0.370600,0.075400,9.652500,-154.750000,-31.500000,4030.250000
1730647684320,-2.538700,0.555100,-1.008100,0.368200,0.081400,9.660900,-154.500000,-33.250000,4038.250000
1730647684340,-2.481600,0.530600,0.959100,0.366400,0.077800,9.663300,-153.000000,-32.500000,4034.750000
1730647684360,-2.489700,0.502000,0.914200,0.376000,0.083200,9.660300,-157.000000,-34.750000,4033.500000
1730647684380,-2.551000,0.534600,0.955100,0.370000,0.075400,9.662100,-155.000000,-34.750000,4037.000000
1730647684400,-2.551000,0.473400,0.967300,0.374200,0.081400,9.658500,-156.250000,-34.000000,4032.750000
1730647684420,-2.534600,0.481600,0.963200,0.373000,0.089800,9.657900,-155.750000,-37.500000,4032.500000
1730647684439,-2.599900,0.542800,-1.004000,0.368800,0.085600,9.659100,-152.500000,-34.500000,4035.500000
1730647684460,-2.559100,0.518300,0.991800,0.369400,0.089800,9.659100,-154.250000,-37.500000,4033.000000
1730647684480,-2.571400,0.583600,0.959100,0.370600,0.084400,9.654900,-154.750000,-35.250000,4031.250000
1730647684500,-2.681600,0.506100,0.979500,0.365800,0.079000,9.647100,-152.750000,-33.000000,4028.000000
1730647684520,-2.644800,0.526500,-1.020400,0.373600,0.085000,9.663900,-156.000000,-35.500000,4035.000000
1730647684539,-2.555100,0.571400,0.959100,0.371800,0.087400,9.659700,-155.250000,-36.500000,4033.250000
1730647684560,-2.604000,0.510200,0.995900,0.369400,0.082600,9.656100,-154.250000,-34.500000,4031.750000
1730647684580,-2.685700,0.530600,-1.000000,0.377800,0.080200,9.660300,-157.750000,-33.500000,4033.500000
1730647684600,-2.559100,0.542800,0.983600,0.365200,0.079600,9.674000,-152.500000,-33.250000,4031.500000
1730647684620,-2.587700,0.559100,-1.012200,0.366400,0.083200,9.657900,-153.000000,-34.750000,4032.500000
1730647684639,-2.559100,0.538700,0.955100,0.373600,0.080800,9.666200,-156.000000,-33.750000,4036.000000
1730647684659,-2.751000,0.534600,0.963200,0.367000,0.079000,9.653700,-150.500000,-32.250000,4034.750000
1730647684679,-2.599900,0.551000,0.987700,0.361000,0.079600,9.663300,-150.750000,-33.250000,4034.750000
1730647684699,-2.616300,0.506100,-1.016300,0.369400,0.083200,9.656700,-154.250000,-34.750000,4032.000000
1730647684718,-2.640800,0.538700,-1.020400,0.376000,0.077800,9.656100,-156.500000,-31.500000,4033.500000
1730647684739,-2.612200,0.510200,0.975500,0.384400,0.070600,9.639900,-160.500000,-29.500000,4025.000000
1730647684759,-2.673400,0.587700,-1.020400,0.372400,0.086200,9.669200,-155.500000,-36.000000,4037.250000
1730647684779,-2.583600,0.473400,0.995900,0.381400,0.082600,9.674600,-157.250000,-31.000000,4025.750000
1730647684799,-2.689700,0.575500,0.959100,0.374200,0.084400,9.661500,-156.250000,-35.250000,4034.000000
1730647684819,-2.575500,0.534600,-1.028500,0.377200,0.073600,9.659700,-157.500000,-30.750000,4033.250000
1730647684839,-2.628500,0.530600,0.979500,0.372400,0.076600,9.663300,-153.000000,-32.000000,4034.750000
1730647684859,-2.591800,0.567300,0.991800,0.374800,0.082000,9.665600,-156.500000,-34.250000,4035.750000
1730647684879,-2.563200,0.514200,0.991800,0.377800,0.077800,9.659700,-157.750000,-32.500000,4033.250000
1730647684899,-2.628500,0.510200,0.975500,0.373600,0.086800,9.656700,-156.000000,-36.250000,4032.000000
1730647684919,-2.620400,0.551000,0.991800,0.364000,0.076600,9.658500,-152.000000,-32.000000,4032.750000
1730647684939,-2.538700,0.559100,0.995900,0.371200,0.085000,9.658500,-155.000000,-35.500000,4032.500000
1730647684959,-2.506100,0.497900,0.926500,0.366400,0.085600,9.663300,-153.000000,-35.750000,4034.750000
1730647684978,-2.608100,0.534600,0.938700,0.371800,0.082600,9.662100,-155.250000,-34.500000,4034.250000
1730647684997,-2.616300,0.530600,0.955100,0.370000,0.077200,9.657300,-153.750000,-31.500000,4029.250000
1730647685018,-2.559100,0.489700,0.975500,0.373000,0.085000,9.650700,-155.750000,-35.500000,4029.500000
1730647685038,-2.481600,0.489700,0.959100,0.367000,0.076600,9.660300,-153.250000,-32.000000,4033.500000
1730647685058,-2.632600,0.522400,0.995900,0.370000,0.082000,9.656700,-154.750000,-35.500000,4029.250000
1730647685078,-2.575500,0.526500,0.955100,0.373000,0.081400,9.667400,-155.750000,-34.000000,4036.500000
1730647685097,-2.718300,0.510200,0.979500,0.379000,0.080200,9.660300,-158.250000,-33.500000,4033.500000
1730647685118,-2.599900,0.571400,-1.020400,0.367600,0.087400,9.654900,-153.750000,-35.000000,4033.750000
1730647685138,-2.579500,0.518300,0.983600,0.372400,0.082600,9.660900,-155.500000,-34.500000,4033.750000
1730647685158,-2.567300,0.469300,0.963200,0.368800,0.081400,9.653700,-154.000000,-34.000000,4030.750000
1730647685178,-2.579500,0.493800,0.991800,0.368800,0.081400,9.650100,-159.000000,-34.000000,4029.250000
1730647685198,-2.563200,0.485700,0.942800,0.374800,0.077800,9.662700,-156.500000,-32.500000,4034.500000
1730647685218,-2.624400,0.551000,-1.032600,0.368200,0.083800,9.665600,-153.750000,-35.000000,4035.750000
1730647685238,-2.677500,0.555100,0.983600,0.367600,0.079600,9.658500,-153.500000,-33.250000,4032.750000
1730647685258,-2.644800,0.514200,0.991800,0.370000,0.082600,9.657300,-154.500000,-34.500000,4032.250000
1730647685278,-2.624400,0.506100,-1.004000,0.381400,0.089200,9.653100,-159.250000,-37.250000,4030.500000
1730647685297,-2.644800,0.571400,-1.000000,0.364600,0.088600,9.653700,-152.250000,-37.000000,4030.750000
1730647685317,-2.559100,0.510200,0.906100,0.366400,0.081400,9.659700,-153.000000,-34.000000,4033.250000
1730647685337,-2.608100,0.526500,0.963200,0.365800,0.083200,9.656700,-155.250000,-35.000000,4028.000000
1730647685357,-2.555100,0.563200,0.926500,0.368200,0.078400,9.656100,-153.750000,-32.750000,4031.750000
1730647685377,-2.587700,0.542800,0.959100,0.379000,0.077200,9.663300,-158.250000,-32.250000,4034.750000
1730647685397,-2.526500,0.518300,0.942800,0.368200,0.086200,9.662700,-153.250000,-36.500000,4034.000000
1730647685417,-2.510200,0.506100,0.926500,0.370000,0.080800,9.659100,-154.500000,-33.750000,4033.000000
1730647685437,-2.608100,0.506100,0.955100,0.364600,0.080800,9.653100,-152.250000,-33.750000,4030.500000
1730647685457,-2.522400,0.489700,0.975500,0.367000,0.077200,9.654300,-153.750000,-34.500000,4030.250000
1730647685477,-2.551000,0.510200,0.955100,0.371800,0.086800,9.660300,-155.250000,-36.250000,4033.500000
1730647685497,-2.620400,0.534600,0.979500,0.374200,0.080200,9.657300,-156.250000,-33.500000,4032.250000
1730647685517,-2.583600,0.530600,0.955100,0.376000,0.081400,9.654300,-153.000000,-34.000000,4031.000000
1730647685537,-2.493800,0.457100,0.967300,0.367000,0.081400,9.645300,-153.250000,-34.000000,4027.250000
1730647685557,-2.559100,0.510200,0.955100,0.378400,0.093400,9.667400,-158.000000,-39.000000,4036.500000
1730647685575,-2.522400,0.465300,0.942800,0.365800,0.071200,9.654300,-152.750000,-29.750000,4031.000000
1730647685595,-2.497900,0.485700,0.934600,0.361600,0.083200,9.662100,-151.000000,-34.750000,4034.250000
1730647685616,-2.526500,0.481600,0.955100,0.371800,0.080800,9.659100,-155.250000,-33.750000,4033.000000
1730647685635,-2.538700,0.485700,0.922400,0.363400,0.078400,9.653700,-151.750000,-32.750000,4030.750000
1730647685655,-2.636700,0.575500,0.979500,0.362800,0.080800,9.667400,-151.500000,-33.750000,4036.500000
1730647685675,-2.673400,0.526500,0.995900,0.371200,0.081400,9.661500,-155.000000,-35.500000,4031.500000
1730647685695,-2.538700,0.538700,0.951000,0.370000,0.079000,9.656100,-154.500000,-33.000000,4031.750000
1730647685716,-2.555100,0.469300,0.934600,0.374800,0.073000,9.655500,-156.500000,-30.500000,4031.500000
1730647685735,-2.514200,0.506100,0.922400,0.365200,0.079600,9.665100,-154.500000,-33.750000,4035.250000
1730647685756,-2.530600,0.506100,0.971400,0.372400,0.089200,9.657300,-155.500000,-37.250000,4032.250000
1730647685776,-2.493800,0.489700,0.938700,0.378400,0.077800,9.658500,-158.000000,-32.500000,4032.750000
1730647685796,-2.555100,0.489700,0.926500,0.372400,0.082600,9.651300,-156.000000,-34.750000,4033.000000
1730647685815,-2.612200,0.485700,0.971400,0.364000,0.082000,9.664500,-152.000000,-34.250000,4035.250000
1730647685835,-2.599900,0.534600,0.922400,0.372400,0.078400,9.661500,-155.500000,-32.750000,4034.000000
1730647685856,-2.538700,0.518300,-1.016300,0.373000,0.081400,9.659700,-158.750000,-35.000000,4032.750000
1730647685875,-2.497900,0.473400,0.938700,0.379000,0.089200,9.669800,-158.250000,-37.250000,4037.500000
1730647685895,-2.563200,0.506100,0.971400,0.368800,0.086800,9.659700,-154.000000,-36.250000,4033.250000
1730647685915,-2.616300,0.546900,0.971400,0.373600,0.082600,9.657900,-156.000000,-34.500000,4032.500000
1730647685934,-2.661200,0.555100,-1.004000,0.374800,0.080200,9.663900,-156.500000,-33.500000,4035.000000
1730647685955,-2.571400,0.493800,0.963200,0.362200,0.083200,9.656700,-151.250000,-34.750000,4032.000000
1730647685975,-2.530600,0.518300,0.955100,0.379000,0.086200,9.665600,-158.250000,-36.000000,4035.750000
1730647685995,-2.510200,0.526500,0.938700,0.373000,0.080800,9.662100,-155.750000,-33.750000,4034.250000
1730647686015,-2.518300,0.502000,0.897900,0.362800,0.080200,9.661500,-151.500000,-33.500000,4031.750000
1730647686035,-2.546900,0.485700,0.922400,0.364600,0.094000,9.665100,-152.250000,-39.250000,4035.500000
1730647686055,-2.538700,0.526500,0.979500,0.380200,0.082600,9.658500,-158.750000,-34.500000,4032.750000
1730647686075,-2.493800,0.502000,0.946900,0.367600,0.074200,9.661500,-152.000000,-31.250000,4031.500000
1730647686095,-2.546900,0.506100,0.951000,0.367000,0.086800,9.657300,-153.250000,-36.250000,4032.250000
1730647686115,-2.575500,0.497900,0.959100,0.366400,0.082600,9.662100,-153.000000,-34.500000,4034.250000
1730647686135,-2.493800,0.440800,0.938700,0.372400,0.076600,9.660900,-150.750000,-31.750000,4036.750000
1730647686154,-2.485700,0.481600,0.902000,0.370600,0.085000,9.653100,-154.750000,-35.500000,4030.500000
1730647686173,-2.534600,0.530600,0.951000,0.370600,0.076600,9.669800,-154.750000,-32.000000,4037.500000
1730647686194,-2.493800,0.497900,0.926500,0.373000,0.077200,9.657300,-155.250000,-33.750000,4035.750000
1730647686213,-2.546900,0.510200,0.955100,0.370600,0.083800,9.661500,-154.750000,-35.000000,4034.000000
1730647686233,-2.461200,0.444800,0.877500,0.379000,0.084400,9.660900,-158.250000,-35.250000,4033.750000
1730647686254,-2.518300,0.481600,0.946900,0.368200,0.091000,9.665100,-158.000000,-38.000000,4035.500000
1730647686274,-2.530600,0.518300,0.963200,0.372400,0.092800,9.659100,-155.500000,-38.750000,4033.000000
1730647686293,-2.485700,0.538700,0.922400,0.374800,0.080800,9.667400,-156.500000,-33.750000,4036.500000
1730647686314,-2.542800,0.485700,0.955100,0.367600,0.089800,9.661500,-153.500000,-37.500000,4034.000000
1730647686333,-2.485700,0.444800,0.975500,0.369400,0.082600,9.664500,-154.250000,-34.500000,4035.250000
1730647686354,-2.465300,0.502000,0.902000,0.376600,0.076000,9.665600,-157.250000,-31.750000,4035.750000
1730647686373,-2.538700,0.526500,0.934600,0.372400,0.083200,9.662100,-155.500000,-34.750000,4034.250000
1730647686393,-2.485700,0.469300,0.922400,0.364000,0.083200,9.657900,-152.000000,-34.750000,4032.500000
1730647686413,-2.546900,0.510200,0.963200,0.373600,0.079600,9.662100,-155.750000,-34.500000,4034.500000
1730647686434,-2.510200,0.497900,0.926500,0.365800,0.083800,9.663300,-152.750000,-35.000000,4034.750000
1730647686452,-2.538700,0.457100,0.967300,0.367600,0.085000,9.660300,-153.500000,-35.500000,4033.500000
1730647686473,-2.457100,0.514200,0.946900,0.373600,0.082600,9.662700,-152.250000,-31.750000,4031.750000
1730647686492,-2.457100,0.461200,0.930600,0.371200,0.093400,9.667400,-155.000000,-39.000000,4036.500000
1730647686513,-2.469300,0.510200,0.885700,0.361600,0.089800,9.655500,-151.000000,-37.500000,4031.500000
1730647686533,-2.526500,0.428500,0.893800,0.370600,0.085600,9.662700,-153.250000,-33.250000,4027.750000
1730647686553,-2.530600,0.489700,0.959100,0.371800,0.083800,9.656700,-155.250000,-35.000000,4032.000000
1730647686573,-2.481600,0.481600,0.930600,0.364000,0.092200,9.652500,-152.000000,-38.500000,4030.250000
1730647686592,-2.514200,0.514200,0.938700,0.372400,0.081400,9.507000,-154.500000,-32.250000,4028.000000
1730647686613,-2.538700,0.530600,0.959100,0.361000,0.085000,9.655500,-150.750000,-35.500000,4031.500000
1730647686633,-2.534600,0.489700,0.914200,0.371200,0.082000,9.663300,-155.000000,-34.250000,4034.750000
1730647686653,-2.469300,0.424400,0.893800,0.367600,0.085000,9.659700,-153.500000,-35.500000,4033.250000
1730647686673,-2.510200,0.522400,0.930600,0.364000,0.088000,9.654300,-152.000000,-36.750000,4031.000000
1730647686693,-2.473400,0.473400,0.914200,0.364600,0.079000,9.659700,-152.250000,-33.000000,4033.250000
1730647686713,-2.526500,0.514200,0.983600,0.377200,0.084400,9.663900,-157.500000,-35.250000,4035.000000
1730647686732,-2.518300,0.514200,0.955100,0.373600,0.085600,9.654900,-156.000000,-35.750000,4031.250000
1730647686752,-2.502000,0.526500,0.946900,0.374200,0.077200,9.675200,-156.250000,-32.250000,4031.250000
1730647686772,-2.563200,0.485700,0.934600,0.361600,0.089800,9.667400,-151.000000,-37.500000,4036.500000
1730647686792,-2.546900,0.510200,0.942800,0.367600,0.085000,9.667400,-153.500000,-35.500000,4036.500000
1730647686812,-2.563200,0.489700,0.959100,0.363400,0.083800,9.648300,-156.250000,-38.250000,4039.250000
1730647686832,-2.620400,0.546900,0.918300,0.368200,0.086800,9.663900,-153.750000,-36.250000,4035.000000
1730647686852,-2.485700,0.485700,0.902000,0.379000,0.072400,9.665600,-158.250000,-30.250000,4035.750000
1730647686872,-2.465300,0.518300,0.902000,0.367000,0.078400,9.656100,-157.000000,-34.500000,4036.250000
1730647686891,-2.473400,0.465300,0.930600,0.374200,0.085000,9.663300,-156.250000,-35.500000,4034.750000
1730647686912,-2.579500,0.481600,0.942800,0.365800,0.089800,9.647700,-152.750000,-37.500000,4028.250000
1730647686932,-2.604000,0.502000,0.963200,0.379000,0.077200,9.668600,-159.000000,-32.250000,4026.500000
1730647686952,-2.469300,0.546900,0.873400,0.380200,0.085000,9.653700,-158.750000,-35.500000,4030.750000
1730647686972,-2.522400,0.530600,0.906100,0.367000,0.096300,9.656700,-153.250000,-40.250000,4032.000000
1730647686991,-2.555100,0.522400,0.967300,0.371200,0.072400,9.679400,-155.750000,-30.250000,4041.500000
1730647687010,-2.591800,0.502000,0.987700,0.368800,0.077800,9.656100,-154.000000,-32.500000,4031.750000
1730647687030,-2.502000,0.534600,0.930600,0.372400,0.094000,9.659700,-155.500000,-39.250000,4033.250000
1730647687051,-2.530600,0.489700,0.959100,0.372400,0.082600,9.663900,-155.500000,-34.500000,4035.000000
1730647687070,-2.489700,0.514200,0.963200,0.366400,0.079600,9.674600,-153.000000,-33.250000,4039.500000
1730647687091,-2.599900,0.489700,0.991800,0.367000,0.081400,9.660300,-153.250000,-34.000000,4033.500000
1730647687110,-2.599900,0.497900,0.967300,0.366400,0.091000,9.661500,-153.000000,-38.000000,4034.000000
1730647687131,-2.620400,0.510200,0.959100,0.373000,0.082600,9.661500,-155.750000,-34.500000,4034.000000
1730647687150,-2.595900,0.489700,0.995900,0.367600,0.079600,9.665100,-159.500000,-32.250000,4035.500000
1730647687171,-2.608100,0.522400,0.995900,0.374200,0.086200,9.657300,-156.250000,-36.000000,4032.250000
1730647687191,-2.608100,0.526500,0.963200,0.364600,0.083800,9.665100,-152.250000,-35.000000,4035.500000
1730647687210,-2.587700,0.522400,0.967300,0.371800,0.074200,9.661500,-154.750000,-35.500000,4032.500000
1730647687230,-2.567300,0.497900,0.922400,0.362200,0.078400,9.669800,-151.250000,-32.750000,4037.500000
1730647687251,-2.591800,0.448900,0.963200,0.357400,0.083800,9.657900,-149.250000,-35.000000,4032.500000
1730647687270,-2.563200,0.502000,0.942800,0.366400,0.086200,9.651300,-153.750000,-34.500000,4037.250000
1730647687290,-2.595900,0.497900,0.991800,0.374800,0.079600,9.675200,-156.500000,-33.250000,4039.750000
1730647687310,-2.591800,0.497900,0.991800,0.362200,0.083200,9.667400,-151.250000,-34.750000,4036.500000
1730647687329,-2.506100,0.530600,0.926500,0.373600,0.088600,9.663300,-154.750000,-32.750000,4034.750000
1730647687349,-2.526500,0.473400,0.942800,0.369400,0.077200,9.653700,-154.250000,-32.250000,4030.750000
1730647687370,-2.526500,0.453000,0.938700,0.361000,0.079600,9.658500,-150.750000,-33.250000,4032.750000
1730647687389,-2.457100,0.489700,0.897900,0.368200,0.089800,9.662100,-153.750000,-37.500000,4034.250000
1730647687409,-2.583600,0.526500,0.938700,0.374200,0.076600,9.663900,-156.250000,-32.000000,4035.000000
1730647687429,-2.489700,0.469300,0.930600,0.370000,0.085000,9.663900,-154.500000,-35.500000,4035.000000
1730647687450,-2.461200,0.510200,0.951000,0.362800,0.086800,9.658500,-151.500000,-36.250000,4032.750000
1730647687470,-2.559100,0.473400,0.971400,0.371800,0.083800,9.663900,-155.250000,-35.000000,4035.000000
1730647687490,-2.555100,0.518300,0.967300,0.367000,0.080800,9.661500,-153.250000,-33.000000,4038.250000
1730647687510,-2.595900,0.485700,0.910200,0.366400,0.076000,9.664500,-153.000000,-31.750000,4035.250000
1730647687530,-2.518300,0.538700,0.955100,0.367000,0.079600,9.650100,-153.250000,-33.250000,4029.250000
1730647687549,-2.608100,0.514200,-1.020400,0.373000,0.076000,9.653700,-156.500000,-32.500000,4032.750000
1730647687570,-2.473400,0.481600,0.987700,0.365200,0.080200,9.662700,-152.500000,-33.500000,4034.500000
1730647687588,-2.563200,0.510200,0.971400,0.366400,0.088600,9.661500,-153.000000,-37.000000,4034.000000
1730647687609,-2.546900,0.546900,0.938700,0.376600,0.080800,9.653100,-151.750000,-35.750000,4036.500000
1730647687629,-2.522400,0.506100,0.902000,0.373600,0.082000,9.662100,-156.000000,-34.250000,4034.250000
1730647687648,-2.563200,0.502000,0.951000,0.367000,0.083200,9.665100,-153.250000,-34.750000,4035.500000
1730647687669,-2.624400,0.502000,-1.012200,0.372400,0.085000,9.663300,-158.250000,-36.000000,4038.250000
1730647687689,-2.612200,0.510200,0.955100,0.367600,0.083200,9.660300,-153.500000,-34.750000,4033.500000
1730647687709,-2.522400,0.481600,0.975500,0.363400,0.077800,9.658500,-151.750000,-32.500000,4032.750000
1730647687728,-2.485700,0.497900,0.995900,0.373600,0.078400,9.656100,-156.000000,-32.750000,4031.750000
1730647687749,-2.571400,0.559100,0.951000,0.367600,0.085000,9.668600,-153.500000,-35.500000,4037.000000
1730647687769,-2.542800,0.493800,0.971400,0.370600,0.083800,9.659700,-154.750000,-35.000000,4033.250000
1730647687789,-2.616300,0.485700,0.914200,0.368800,0.074800,9.661500,-154.000000,-31.250000,4034.000000
1730647687809,-2.648900,0.587700,0.987700,0.359200,0.087400,9.659100,-150.000000,-36.500000,4033.000000
1730647687828,-2.653000,0.514200,0.963200,0.365200,0.077200,9.654300,-152.500000,-32.250000,4095.000000
1730647687849,-2.624400,0.489700,0.995900,0.375400,0.080800,9.659700,-156.750000,-33.750000,4033.250000
1730647687868,-2.477500,0.493800,0.865300,0.369400,0.088600,9.671000,-154.250000,-37.000000,4038.000000
1730647687887,-2.526500,0.485700,0.979500,0.370000,0.082000,9.655500,-157.000000,-36.000000,4036.000000
1730647687907,-2.608100,0.522400,0.959100,0.367000,0.087400,9.667400,-153.250000,-36.500000,4036.500000
1730647687928,-2.616300,0.563200,0.938700,0.378400,0.079600,9.661500,-158.000000,-33.250000,4034.000000
1730647687948,-2.640800,0.518300,0.963200,0.370600,0.082000,9.666200,-154.500000,-31.000000,4035.500000
1730647687968,-2.591800,0.542800,0.983600,0.370600,0.083200,9.663300,-154.750000,-34.750000,4034.750000
1730647687987,-2.477500,0.514200,0.926500,0.366400,0.076600,9.659100,-153.000000,-32.000000,4033.000000
1730647688008,-2.502000,0.518300,0.946900,0.368200,0.079000,9.657900,-153.250000,-34.250000,4030.750000
1730647688028,-2.563200,0.526500,0.938700,0.369400,0.082000,9.653700,-154.250000,-34.250000,4030.750000
1730647688047,-2.579500,0.493800,0.942800,0.367000,0.081400,9.643500,-153.250000,-34.000000,4026.500000
1730647688068,-2.632600,0.514200,0.918300,0.367600,0.082000,9.660900,-153.500000,-36.500000,4033.750000
1730647688088,-2.555100,0.538700,0.938700,0.373600,0.082600,9.654900,-156.000000,-34.500000,4031.250000
1730647688108,-2.530600,0.497900,0.934600,0.364600,0.078400,9.663900,-152.250000,-32.750000,4035.000000
1730647688128,-2.534600,0.485700,0.979500,0.368800,0.080800,9.660900,-154.000000,-33.750000,4033.750000
1730647688147,-2.575500,0.518300,0.914200,0.366400,0.078400,9.656100,-153.000000,-32.750000,4031.750000
1730647688167,-2.608100,0.522400,0.963200,0.365800,0.081400,9.660300,-152.750000,-34.000000,4033.500000
1730647688186,-2.551000,0.506100,0.942800,0.371200,0.092800,9.664500,-155.000000,-38.750000,4035.250000
1730647688207,-2.616300,0.534600,0.959100,0.365200,0.083800,9.656700,-152.500000,-35.000000,4032.000000
1730647688227,-2.628500,0.506100,0.955100,0.371200,0.078400,9.660900,-155.000000,-33.250000,4032.500000
1730647688247,-2.506100,0.502000,0.967300,0.376600,0.079000,9.654900,-157.250000,-33.000000,4031.250000
1730647688267,-2.485700,0.469300,0.975500,0.364600,0.082600,9.659100,-152.250000,-34.500000,4033.000000
1730647688287,-2.579500,0.497900,0.930600,0.371200,0.085000,9.665600,-152.500000,-36.500000,4034.250000
1730647688306,-2.538700,0.538700,0.975500,0.361600,0.087400,9.667400,-151.000000,-36.500000,4036.500000
1730647688327,-2.575500,0.526500,0.926500,0.370000,0.086200,9.650700,-154.500000,-36.000000,4029.500000
1730647688347,-2.595900,0.530600,0.979500,0.373000,0.085000,9.660900,-152.250000,-34.750000,4034.250000
1730647688367,-2.632600,0.497900,0.979500,0.366400,0.075400,9.657300,-153.000000,-31.500000,4032.250000
1730647688387,-2.473400,0.469300,0.902000,0.371200,0.086800,9.660900,-155.000000,-36.250000,4033.750000
1730647688407,-2.473400,0.522400,0.918300,0.368200,0.083800,9.668600,-159.250000,-34.250000,4039.000000
1730647688427,-2.530600,0.493800,0.934600,0.374200,0.087400,9.666200,-156.250000,-36.500000,4036.000000
1730647688446,-2.469300,0.461200,0.963200,0.369400,0.089800,9.662700,-154.250000,-37.500000,4034.500000
1730647688465,-2.551000,0.530600,0.971400,0.362200,0.078400,9.666800,-151.250000,-32.750000,4036.250000
1730647688485,-2.534600,0.506100,0.918300,0.368800,0.080800,9.663900,-154.000000,-33.750000,4035.000000
1730647688505,-2.502000,0.485700,0.893800,0.368800,0.087400,9.669800,-154.000000,-36.500000,4037.500000
1730647688526,-2.440800,0.481600,0.946900,0.372400,0.092800,9.646500,-155.500000,-38.750000,4027.750000
1730647688546,-2.518300,0.485700,0.934600,0.365800,0.089200,9.671000,-152.750000,-37.250000,4038.000000
1730647688565,-2.526500,0.530600,0.934600,0.378400,0.083200,9.664500,-158.000000,-34.750000,4036.750000
1730647688585,-2.469300,0.424400,0.942800,0.371200,0.080200,9.668000,-155.000000,-33.500000,4036.750000
1730647688605,-2.522400,0.510200,0.914200,0.375400,0.089200,9.657900,-156.750000,-37.250000,4032.500000
1730647688626,-2.555100,0.432600,0.926500,0.367000,0.080800,9.659100,-150.250000,-31.500000,4036.000000
1730647688645,-2.542800,0.485700,0.938700,0.367600,0.080200,9.659100,-153.500000,-33.500000,4033.000000
1730647688666,-2.583600,0.489700,0.951000,0.365200,0.082000,9.651900,-152.500000,-34.250000,4030.000000
1730647688686,-2.604000,0.461200,0.946900,0.368800,0.083800,9.657900,-155.000000,-36.750000,4034.500000
1730647688705,-2.599900,0.489700,0.971400,0.373600,0.087400,9.657900,-156.000000,-36.500000,4032.500000
1730647688725,-2.506100,0.502000,0.942800,0.364600,0.087400,9.659700,-152.250000,-36.500000,4033.250000
1730647688745,-2.595900,0.489700,0.963200,0.364000,0.089800,9.658500,-157.000000,-37.500000,4037.750000
1730647688764,-2.514200,0.481600,0.959100,0.371200,0.080800,9.661500,-155.000000,-33.750000,4034.000000
1730647688785,-2.461200,0.493800,0.938700,0.362800,0.079600,9.665100,-151.500000,-33.250000,4035.500000
1730647688804,-2.477500,0.469300,0.942800,0.364000,0.085000,9.654900,-152.500000,-35.500000,4031.250000
1730647688824,-2.538700,0.469300,0.971400,0.378400,0.088000,9.667400,-158.000000,-36.750000,4036.500000
1730647688844,-2.497900,0.559100,0.922400,0.369400,0.082600,9.673400,-154.250000,-34.500000,4039.000000
1730647688865,-2.448900,0.514200,0.889700,0.364600,0.086800,9.670400,-152.250000,-36.250000,4037.750000
1730647688884,-2.473400,0.514200,0.926500,0.369400,0.088600,9.659100,-154.250000,-37.000000,4033.000000
1730647688904,-2.546900,0.436700,0.938700,0.368800,0.087400,9.660900,-154.000000,-36.500000,4033.750000
1730647688925,-2.661200,0.514200,-1.000000,0.373600,0.079000,9.660900,-156.000000,-33.000000,4033.750000
1730647688945,-2.583600,0.477500,0.959100,0.365800,0.085000,9.656100,-152.750000,-35.500000,4031.750000
1730647688965,-2.632600,0.559100,-1.004000,0.367600,0.081400,9.660300,-155.250000,-36.750000,4037.750000
1730647688985,-2.457100,0.493800,0.967300,0.367600,0.082600,9.659700,-153.500000,-34.500000,4033.250000
1730647689003,-2.502000,0.489700,0.942800,0.370000,0.085600,9.665100,-154.500000,-35.750000,4035.500000
1730647689024,-2.538700,0.510200,0.934600,0.371800,0.083200,9.658500,-153.000000,-35.250000,4030.750000
1730647689043,-2.534600,0.489700,0.930600,0.376000,0.086200,9.644700,-157.000000,-36.000000,4027.000000
1730647689064,-2.510200,0.526500,0.951000,0.367000,0.086800,9.661500,-153.250000,-36.250000,4034.000000
1730647689084,-2.461200,0.489700,0.889700,0.374800,0.077200,9.659700,-154.750000,-33.250000,4035.750000
1730647689103,-2.546900,0.493800,0.897900,0.379600,0.084400,9.669200,-158.500000,-35.250000,4037.250000
1730647689124,-2.493800,0.477500,0.942800,0.367600,0.090400,9.659700,-153.500000,-37.750000,4033.250000
1730647689143,-2.518300,0.510200,0.934600,0.370600,0.083200,9.660900,-153.000000,-32.750000,4034.500000
1730647689164,-2.567300,0.510200,0.938700,0.371200,0.086800,9.665100,-155.000000,-36.250000,4035.500000
1730647689183,-2.493800,0.526500,0.942800,0.368800,0.089800,9.657300,-154.000000,-37.500000,4032.250000
1730647689204,-2.530600,0.481600,0.930600,0.367000,0.085000,9.664500,-153.250000,-35.500000,4035.250000
1730647689224,-2.599900,0.510200,0.946900,0.371800,0.078400,9.657300,-155.250000,-32.750000,4032.250000
1730647689243,-2.567300,0.518300,0.995900,0.368200,0.076000,9.655500,-153.750000,-31.750000,4031.500000
1730647689264,-2.653000,0.522400,0.991800,0.368200,0.082000,9.660300,-153.750000,-34.250000,4033.500000
1730647689283,-2.493800,0.489700,-1.000000,0.367000,0.089200,9.658500,-153.250000,-37.250000,4032.750000
1730647689303,-2.489700,0.493800,0.922400,0.368200,0.080200,9.658500,-153.750000,-33.500000,4036.750000
1730647689323,-2.465300,0.510200,0.934600,0.373000,0.085000,9.654900,-155.750000,-35.500000,4031.250000
1730647689342,-2.612200,0.530600,0.955100,0.363400,0.082000,9.660900,-151.750000,-34.250000,4033.750000
1730647689362,-2.538700,0.506100,0.951000,0.364000,0.080800,9.662700,-151.250000,-34.000000,4038.250000
1730647689383,-2.485700,0.420400,0.951000,0.362200,0.079600,9.650700,-151.250000,-33.250000,4029.500000
1730647689403,-2.526500,0.522400,0.959100,0.371800,0.082600,9.661500,-155.250000,-34.500000,4034.000000
1730647689423,-2.591800,0.461200,0.959100,0.361600,0.089800,9.654300,-155.500000,-35.750000,4031.750000
1730647689443,-2.506100,0.518300,0.914200,0.379000,0.077200,9.646500,-158.250000,-32.250000,4027.750000
1730647689463,-2.595900,0.555100,0.955100,0.370000,0.080800,9.671600,-154.500000,-33.750000,4038.250000
1730647689483,-2.465300,0.567300,0.946900,0.368200,0.089800,9.667400,-156.250000,-33.750000,4032.000000
1730647689503,-2.506100,0.538700,0.930600,0.359800,0.085000,9.657900,-150.250000,-35.500000,4032.500000
1730647689522,-2.404000,0.489700,0.910200,0.371200,0.077800,9.659700,-155.000000,-32.500000,4033.250000
1730647689543,-2.538700,0.506100,0.918300,0.367600,0.085000,9.659700,-154.250000,-35.500000,4033.250000
1730647689561,-2.461200,0.502000,0.951000,0.371200,0.088000,9.654300,-155.000000,-36.750000,4031.000000
1730647689582,-2.514200,0.522400,0.922400,0.364000,0.076600,9.660900,-152.000000,-32.000000,4033.750000
1730647689602,-2.514200,0.514200,0.930600,0.374800,0.086200,9.660900,-156.500000,-36.000000,4033.750000
1730647689622,-2.489700,0.497900,0.951000,0.373000,0.086200,9.660900,-155.750000,-36.000000,4033.750000
1730647689642,-2.563200,0.481600,0.955100,0.371800,0.082600,9.657900,-155.250000,-34.500000,3968.500000
1730647689662,-2.587700,0.502000,0.955100,0.376000,0.077800,9.654900,-157.000000,-32.500000,4031.250000
1730647689681,-2.518300,0.506100,0.967300,0.373600,0.075400,9.662100,-156.000000,-31.500000,4034.250000
1730647689702,-2.546900,0.502000,0.995900,0.374800,0.079600,9.654300,-154.750000,-32.250000,4036.500000
1730647689722,-2.579500,0.563200,-1.016300,0.366400,0.077200,9.667400,-153.000000,-32.250000,4036.500000
1730647689742,-2.514200,0.493800,-1.004000,0.368800,0.085000,9.662100,-154.000000,-35.500000,4034.250000
1730647689761,-2.502000,0.473400,0.959100,0.362200,0.086800,9.659700,-156.000000,-32.000000,4032.500000
1730647689781,-2.514200,0.510200,0.914200,0.373000,0.082000,9.659700,-155.750000,-34.250000,4033.250000
1730647689801,-2.579500,0.518300,0.942800,0.369400,0.080200,9.656700,-154.250000,-33.500000,4032.000000
1730647689822,-2.644800,0.518300,-1.008100,0.365800,0.082600,9.663900,-153.250000,-35.500000,4029.000000
1730647689842,-2.648900,0.575500,-1.004000,0.367600,0.086200,9.668000,-153.500000,-36.000000,4036.750000
1730647689862,-2.579500,0.530600,-1.028500,0.364600,0.072400,9.666800,-152.250000,-30.250000,4036.250000
1730647689881,-2.575500,0.493800,0.963200,0.378400,0.082000,9.665100,-153.250000,-33.750000,4035.500000
1730647689901,-2.518300,0.530600,0.967300,0.373000,0.080800,9.662100,-155.750000,-33.750000,4034.250000
1730647689921,-2.579500,0.542800,0.979500,0.368800,0.080200,9.656700,-154.000000,-33.500000,4032.000000
1730647689941,-2.612200,0.563200,0.971400,0.365200,0.080200,9.657900,-152.500000,-33.500000,4032.500000
1730647689961,-2.518300,0.575500,-1.000000,0.367600,0.081400,9.666800,-153.500000,-34.000000,4036.250000
1730647689981,-2.538700,0.546900,0.930600,0.365800,0.095200,9.657300,-152.750000,-39.750000,4032.250000
1730647690000,-2.559100,0.526500,0.906100,0.375400,0.081400,9.659700,-156.750000,-34.000000,4033.250000
1730647690021,-2.514200,0.522400,0.922400,0.364000,0.084400,9.656100,-152.000000,-35.250000,4031.750000
1730647690041,-2.640800,0.583600,0.971400,0.372400,0.080200,9.658500,-155.500000,-33.000000,4030.750000
1730647690061,-2.489700,0.453000,0.926500,0.365200,0.083800,9.651900,-152.500000,-35.000000,4030.000000
1730647690081,-2.493800,0.485700,0.918300,0.369400,0.081400,9.660900,-154.250000,-34.000000,4033.750000
1730647690101,-2.551000,0.493800,0.955100,0.365800,0.079600,9.657900,-153.750000,-35.500000,4035.750000
1730647690121,-2.526500,0.522400,0.963200,0.365200,0.085000,9.661500,-152.500000,-35.500000,4034.000000
1730647690141,-2.559100,0.538700,0.963200,0.377200,0.082600,9.668000,-157.500000,-34.500000,4036.750000
1730647690160,-2.551000,0.571400,0.959100,0.367600,0.076600,9.668000,-154.500000,-34.000000,4032.500000
1730647690180,-2.587700,0.514200,0.971400,0.374200,0.082600,9.664500,-156.250000,-34.500000,4035.250000
1730647690200,-2.599900,0.534600,0.951000,0.359200,0.087400,9.652500,-150.000000,-36.500000,4030.250000
1730647690220,-2.616300,0.534600,0.910200,0.370000,0.080200,9.807000,-156.750000,-33.250000,4036.000000
1730647690240,-2.477500,0.477500,0.914200,0.365800,0.074800,9.654300,-152.750000,-31.250000,4031.000000
1730647690260,-2.559100,0.538700,0.991800,0.364600,0.081400,9.658500,-152.250000,-34.000000,4032.750000
1730647690279,-2.497900,0.514200,0.893800,0.371200,0.081400,9.657300,-155.000000,-34.000000,4032.250000
1730647690300,-2.567300,0.530600,0.983600,0.365200,0.086200,9.657900,-152.500000,-36.000000,4032.500000
1730647690320,-2.583600,0.551000,0.987700,0.373000,0.088000,9.658500,-155.750000,-36.750000,4032.750000
1730647690340,-2.559100,0.465300,0.951000,0.374200,0.082000,9.659700,-156.250000,-34.250000,4033.250000
1730647690360,-2.448900,0.567300,0.951000,0.372400,0.083200,9.651900,-155.500000,-34.750000,4030.000000
1730647690380,-2.583600,0.510200,0.975500,0.373600,0.086200,9.669200,-156.000000,-36.000000,4033.000000
1730647690400,-2.624400,0.546900,0.971400,0.371800,0.082600,9.662700,-155.250000,-34.500000,4034.500000
1730647690420,-2.538700,0.514200,-1.008100,0.373600,0.083800,9.669800,-156.000000,-35.000000,4037.500000
1730647690439,-2.620400,0.493800,0.987700,0.367600,0.085000,9.655500,-149.750000,-36.000000,4030.750000
1730647690458,-2.522400,0.489700,0.971400,0.374200,0.087400,9.660300,-156.250000,-36.500000,4033.500000
1730647690478,-2.502000,0.502000,0.946900,0.364600,0.082000,9.666800,-152.250000,-34.250000,4036.250000
1730647690499,-2.583600,0.518300,0.975500,0.369400,0.082600,9.654300,-158.500000,-34.000000,4035.750000
1730647690518,-2.661200,0.493800,0.995900,0.370600,0.086200,9.664500,-154.750000,-36.000000,4035.250000
1730647690538,-2.514200,0.497900,0.971400,0.379600,0.087400,9.650100,-158.500000,-36.500000,4029.250000
1730647690559,-2.522400,0.465300,0.922400,0.368800,0.082600,9.658500,-155.000000,-32.500000,4035.000000
1730647690579,-2.546900,0.522400,0.959100,0.374200,0.084400,9.663900,-156.250000,-35.250000,4035.000000
1730647690599,-2.534600,0.551000,0.975500,0.374800,0.078400,9.656100,-156.500000,-32.750000,4031.750000
1730647690619,-2.730600,0.579500,0.959100,0.362200,0.082600,9.663300,-155.750000,-34.500000,4034.750000
1730647690638,-2.628500,0.510200,0.987700,0.365800,0.079600,9.660300,-152.750000,-33.250000,4033.500000
1730647690659,-2.620400,0.514200,0.955100,0.362200,0.081400,9.660300,-151.250000,-34.000000,4033.500000
1730647690679,-2.559100,0.534600,-1.000000,0.373000,0.080800,9.661500,-155.750000,-33.750000,4034.000000
1730647690699,-2.555100,0.579500,0.922400,0.363400,0.078400,9.659100,-151.750000,-32.750000,4033.000000
1730647690719,-2.595900,0.510200,0.955100,0.364000,0.082000,9.659100,-152.000000,-34.250000,4033.000000
1730647690738,-2.546900,0.465300,0.983600,0.374800,0.083200,9.659700,-156.500000,-34.750000,4033.250000
1730647690758,-2.440800,0.493800,0.926500,0.377200,0.078400,9.664500,-157.500000,-32.750000,4035.250000
1730647690777,-2.502000,0.485700,0.897900,0.371800,0.081400,9.660300,-153.000000,-34.000000,4032.000000
1730647690798,-2.497900,0.465300,0.938700,0.365200,0.088600,9.658500,-152.500000,-37.000000,4032.750000
1730647690817,-2.473400,0.489700,0.918300,0.371200,0.083800,9.648300,-155.000000,-35.000000,4028.500000
1730647690838,-2.583600,0.502000,0.918300,0.372400,0.082000,9.662100,-156.750000,-33.000000,4038.000000
1730647690858,-2.648900,0.571400,0.995900,0.370600,0.081400,9.664500,-154.750000,-34.000000,4035.250000
1730647690878,-2.567300,0.530600,-1.004000,0.367000,0.086800,9.660300,-153.250000,-36.250000,4033.500000
1730647690898,-2.555100,0.522400,-1.024400,0.368200,0.085600,9.656100,-154.500000,-34.750000,4033.750000
1730647690918,-2.542800,0.514200,0.951000,0.379000,0.077200,9.660900,-158.250000,-32.250000,4033.750000
1730647690938,-2.567300,0.534600,0.987700,0.359200,0.083800,9.668600,-150.000000,-35.000000,4037.000000
1730647690957,-2.653000,0.485700,0.975500,0.369400,0.082000,9.667400,-155.250000,-31.500000,4036.500000
1730647690978,-2.608100,0.493800,0.967300,0.371800,0.080200,9.666200,-155.250000,-33.500000,4036.000000
1730647690998,-2.522400,0.432600,0.951000,0.371800,0.079000,9.660300,-155.250000,-33.000000,4033.500000
1730647691018,-2.453000,0.457100,0.955100,0.367600,0.083200,9.654900,-153.500000,-34.750000,4031.250000
1730647691037,-2.538700,0.518300,0.914200,0.364000,0.080200,9.665100,-152.000000,-33.500000,4035.500000
1730647691057,-2.604000,0.473400,0.971400,0.383200,0.083200,9.661500,-160.000000,-34.750000,4034.000000
1730647691077,-2.514200,0.530600,0.951000,0.377200,0.086200,9.663300,-157.500000,-36.000000,4034.750000
1730647691097,-2.522400,0.457100,0.955100,0.373600,0.078400,9.656700,-156.000000,-32.750000,4032.000000
1730647691117,-2.493800,0.510200,0.930600,0.372400,0.086200,9.658500,-155.500000,-32.000000,4035.000000
1730647691137,-2.587700,0.514200,0.971400,0.370600,0.079000,9.657900,-154.750000,-33.000000,4032.500000
1730647691157,-2.546900,0.538700,0.983600,0.367600,0.087400,9.661500,-153.500000,-36.500000,4034.000000
1730647691177,-2.514200,0.559100,0.963200,0.370000,0.091000,9.663900,-154.000000,-36.000000,4032.250000
1730647691197,-2.583600,0.522400,0.959100,0.376600,0.076000,9.658500,-157.250000,-31.750000,4032.750000
1730647691217,-2.546900,0.469300,0.914200,0.368800,0.080200,9.664500,-154.000000,-33.500000,4035.250000
1730647691237,-2.551000,0.493800,0.971400,0.372400,0.086800,9.651900,-154.750000,-35.750000,4031.000000
1730647691257,-2.591800,0.493800,0.979500,0.367000,0.079000,9.656100,-153.250000,-33.000000,4031.750000
1730647691277,-2.542800,0.510200,0.922400,0.371800,0.073600,9.672800,-155.250000,-30.750000,4038.750000
1730647691297,-2.546900,0.493800,0.983600,0.364000,0.082000,9.666200,-151.750000,-36.750000,4031.500000
1730647691316,-2.448900,0.506100,0.926500,0.377200,0.088000,9.655500,-157.500000,-36.750000,4031.500000
1730647691336,-2.506100,0.595900,0.951000,0.373600,0.081400,9.663300,-156.000000,-34.000000,4034.750000
1730647691356,-2.546900,0.514200,0.955100,0.367600,0.082000,9.660900,-153.500000,-34.250000,4033.750000
1730647691376,-2.457100,0.534600,0.914200,0.371200,0.082600,9.659100,-155.000000,-34.500000,4033.000000
1730647691395,-2.481600,0.477500,0.975500,0.371800,0.077200,9.662700,-155.250000,-32.250000,4034.500000
1730647691416,-2.546900,0.493800,0.938700,0.371800,0.082600,9.662100,-155.250000,-34.500000,4034.250000
1730647691435,-2.506100,0.477500,0.910200,0.375400,0.082000,9.668000,-156.750000,-34.250000,4036.750000
1730647691455,-2.469300,0.506100,0.955100,0.372400,0.088600,9.655500,-155.500000,-37.000000,4031.750000
1730647691475,-2.542800,0.502000,-1.000000,0.370600,0.080800,9.669200,-154.750000,-33.750000,4037.250000
1730647691495,-2.563200,0.555100,0.918300,0.371800,0.074200,9.668600,-155.250000,-31.000000,4037.000000
1730647691515,-2.469300,0.542800,0.914200,0.371200,0.077800,9.658500,-155.000000,-36.250000,4031.750000
1730647691536,-2.555100,0.555100,0.918300,0.368800,0.084400,9.659100,-154.000000,-35.250000,4033.000000
1730647691556,-2.555100,0.522400,0.959100,0.375400,0.078400,9.662100,-156.750000,-32.750000,4034.250000
1730647691576,-2.604000,0.518300,0.991800,0.368800,0.080800,9.658500,-154.000000,-33.750000,4032.750000
1730647691596,-2.555100,0.526500,0.934600,0.372400,0.088600,9.659100,-155.500000,-37.000000,4033.000000
1730647691616,-2.534600,0.473400,0.975500,0.363400,0.086200,9.665100,-151.750000,-36.000000,4035.500000
1730647691635,-2.493800,0.514200,0.946900,0.368200,0.085000,9.660300,-156.000000,-34.750000,4032.000000
1730647691655,-2.583600,0.473400,0.987700,0.365800,0.077200,9.648900,-152.750000,-32.250000,4028.750000
1730647691675,-2.636700,0.485700,-1.028500,0.379600,0.083800,9.655500,-158.500000,-35.000000,4031.500000
1730647691694,-2.587700,0.453000,0.955100,0.397500,0.067600,9.660900,-151.500000,-28.250000,4033.750000
1730647691714,-2.481600,0.481600,0.967300,0.353200,0.076000,9.662100,-147.500000,-31.750000,4034.250000
1730647691735,-2.457100,0.534600,0.934600,0.362800,0.081400,9.659700,-151.500000,-34.000000,4033.250000
1730647691754,-2.379500,0.624400,0.930600,0.382600,0.086800,9.659700,-159.750000,-36.250000,4033.250000
1730647691775,-2.571400,0.526500,0.967300,0.372400,0.083200,9.665600,-155.500000,-34.750000,4035.750000
1730647691795,-2.542800,0.502000,0.930600,0.370000,0.077800,9.660900,-154.500000,-32.500000,4034.000000
1730647691815,-2.591800,0.481600,0.922400,0.362200,0.074800,9.666200,-151.250000,-31.250000,4036.000000
1730647691835,-2.604000,0.485700,0.975500,0.365200,0.073600,9.663900,-152.500000,-30.750000,4035.000000
1730647691855,-2.502000,0.538700,0.910200,0.367000,0.083800,9.648300,-154.750000,-36.500000,4039.000000
1730647691874,-2.604000,0.497900,0.922400,0.373600,0.077800,9.664500,-156.000000,-32.500000,4035.250000
1730647691894,-2.514200,0.489700,0.955100,0.373000,0.074200,9.663300,-155.750000,-31.000000,4034.750000
1730647691915,-2.506100,0.510200,0.967300,0.368800,0.077200,9.659700,-150.000000,-36.750000,4036.250000
1730647691933,-2.583600,0.481600,0.946900,0.360400,0.091000,9.656100,-150.500000,-38.000000,4031.750000
1730647691953,-2.514200,0.481600,0.971400,0.371200,0.082600,9.663300,-155.000000,-34.500000,4034.750000
1730647691974,-2.489700,0.481600,0.963200,0.372400,0.072400,9.659700,-152.500000,-31.000000,4035.000000
1730647691994,-2.514200,0.493800,0.963200,0.369400,0.082000,9.659700,-154.250000,-34.250000,4033.250000
1730647692014,-2.416300,0.538700,0.922400,0.361000,0.088000,9.650700,-150.750000,-36.750000,4029.500000
1730647692034,-2.681600,0.551000,-1.000000,0.370600,0.079000,9.669200,-152.250000,-35.250000,4037.250000
1730647692054,-2.681600,0.546900,0.983600,0.370600,0.088600,9.665600,-154.750000,-37.000000,4035.750000
1730647692074,-2.648900,0.534600,0.995900,0.365800,0.098700,9.654300,-152.750000,-41.250000,4031.000000
1730647692093,-2.640800,0.551000,-1.024400,0.370000,0.073000,9.660900,-154.500000,-30.500000,4033.750000
1730647692114,-2.579500,0.534600,0.959100,0.371200,0.078400,9.665100,-155.000000,-32.750000,4035.500000
1730647692133,-2.506100,0.522400,0.914200,0.364000,0.082000,9.657900,-152.000000,-34.250000,4032.500000
1730647692154,-2.506100,0.534600,0.959100,0.368200,0.089200,9.663900,-153.750000,-37.250000,4035.000000
1730647692174,-2.567300,0.526500,0.951000,0.375400,0.074200,9.661500,-156.750000,-31.000000,4034.000000
1730647692194,-2.493800,0.485700,0.946900,0.372400,0.081400,9.655500,-155.500000,-35.000000,4038.000000
1730647692214,-2.542800,0.493800,0.963200,0.370600,0.086200,9.660300,-154.750000,-36.000000,4033.500000
1730647692232,-2.599900,0.567300,0.967300,0.376000,0.068800,9.666800,-157.000000,-28.750000,4036.250000
1730647692252,-2.563200,0.587700,0.971400,0.374800,0.075400,9.656700,-154.000000,-32.500000,4029.000000
1730647692273,-2.571400,0.489700,0.967300,0.362200,0.088600,9.656100,-151.250000,-37.000000,4031.750000
1730647692292,-2.477500,0.469300,0.922400,0.371800,0.086200,9.660900,-155.250000,-36.000000,4033.750000
1730647692313,-2.591800,0.493800,0.983600,0.371200,0.073600,9.667400,-157.250000,-29.250000,4038.250000
1730647692333,-2.493800,0.522400,0.959100,0.373600,0.082600,9.662100,-156.000000,-34.500000,4034.250000
1730647692352,-2.587700,0.510200,0.991800,0.374800,0.089200,9.653700,-156.500000,-37.250000,4030.750000
1730647692373,-2.624400,0.530600,0.967300,0.364600,0.091600,9.504600,-156.000000,-35.500000,4028.000000
1730647692393,-2.546900,0.551000,0.938700,0.371200,0.073600,9.663300,-155.000000,-30.750000,4034.750000
1730647692413,-2.551000,0.567300,0.983600,0.370600,0.079000,9.667400,-154.750000,-33.000000,4036.500000
1730647692432,-2.542800,0.477500,0.967300,0.369400,0.082600,9.661500,-154.250000,-34.500000,4034.000000
1730647692453,-2.489700,0.510200,0.897900,0.367000,0.077800,9.664500,-153.250000,-32.500000,4035.250000
1730647692472,-2.522400,0.477500,0.934600,0.362200,0.088000,9.663300,-151.250000,-36.750000,4034.750000
1730647692492,-2.559100,0.510200,0.991800,0.376600,0.083200,9.659700,-157.250000,-34.750000,4033.250000
1730647692512,-2.510200,0.502000,0.971400,0.376600,0.079000,9.660900,-157.250000,-33.000000,4033.750000
1730647692532,-2.706100,0.526500,-1.024400,0.366400,0.081400,9.660900,-153.000000,-34.000000,4033.250000
1730647692551,-2.571400,0.530600,-1.024400,0.371800,0.077200,9.668600,-155.250000,-32.250000,4037.000000
1730647692572,-2.559100,0.542800,0.938700,0.362800,0.087400,9.661500,-151.500000,-36.500000,4034.000000
1730647692592,-2.510200,0.481600,0.914200,0.361600,0.083200,9.666800,-150.500000,-34.750000,4027.500000
1730647692611,-2.444800,0.485700,0.967300,0.364600,0.086800,9.647700,-152.250000,-36.250000,4028.250000
1730647692631,-2.502000,0.534600,0.951000,0.374200,0.093400,9.659700,-156.250000,-39.000000,4033.250000
1730647692652,-2.587700,0.502000,0.975500,0.374800,0.091600,9.663300,-156.250000,-35.500000,4036.000000
1730647692671,-2.555100,0.555100,0.934600,0.364600,0.082000,9.674600,-152.250000,-34.250000,4039.500000
1730647692692,-2.522400,0.502000,0.930600,0.376000,0.082000,9.663300,-157.000000,-34.250000,4034.750000
1730647692712,-2.502000,0.461200,0.942800,0.368800,0.080200,9.653100,-156.750000,-32.250000,4028.500000
1730647692732,-2.534600,0.497900,0.975500,0.374200,0.082600,9.654300,-156.250000,-34.500000,4031.000000
1730647692752,-2.595900,0.518300,0.971400,0.373000,0.077200,9.663300,-155.750000,-32.250000,4034.750000
1730647692772,-2.579500,0.497900,0.955100,0.370000,0.090400,9.655500,-155.750000,-37.750000,4031.500000
1730647692791,-2.497900,0.493800,0.963200,0.368800,0.088000,9.651300,-154.000000,-36.750000,4029.750000
1730647692811,-2.493800,0.518300,0.959100,0.366400,0.074800,9.669200,-153.000000,-31.250000,4037.250000
1730647692831,-2.485700,0.502000,0.951000,0.373000,0.076000,9.658500,-155.750000,-31.750000,4032.750000
1730647692851,-2.546900,0.518300,0.955100,0.371200,0.080800,9.660900,-155.000000,-33.750000,4033.750000
1730647692870,-2.583600,0.522400,0.934600,0.365200,0.085000,9.672200,-152.500000,-35.500000,4038.500000
1730647692891,-2.587700,0.530600,0.995900,0.377200,0.080800,9.654900,-157.500000,-33.750000,4031.250000
1730647692911,-2.571400,0.530600,0.971400,0.367000,0.082600,9.660300,-153.250000,-34.500000,4033.500000
1730647692931,-2.551000,0.600000,0.938700,0.380200,0.089800,9.683600,-151.000000,-33.750000,4040.000000
1730647692951,-2.636700,0.538700,0.963200,0.363400,0.077800,9.666800,-151.750000,-32.500000,4036.250000
1730647692971,-2.522400,0.510200,-1.020400,0.374200,0.089800,9.653700,-156.250000,-37.500000,4030.750000
1730647692991,-2.612200,0.436700,0.942800,0.316100,0.161600,9.659700,-161.750000,-42.250000,4039.750000
1730647693011,-2.534600,0.497900,0.938700,0.376600,0.085000,9.681200,-157.250000,-35.500000,4042.250000
1730647693031,-2.530600,0.408100,0.963200,0.371800,0.074200,9.668600,-155.250000,-31.000000,4037.000000
1730647693051,-2.481600,0.346900,0.914200,0.364600,0.080800,9.646500,-144.000000,-38.750000,4024.000000
1730647693070,-2.473400,0.563200,0.885700,0.405900,0.117300,9.610600,-169.500000,-49.000000,4012.750000
1730647693089,-2.542800,0.551000,0.959100,0.416100,0.098700,9.658500,-173.750000,-41.250000,4032.750000
1730647693110,-2.465300,0.461200,0.938700,0.389100,0.077200,9.686000,-151.500000,-24.750000,4044.250000
1730647693130,-2.473400,0.477500,0.946900,0.360400,0.089200,9.669200,-150.500000,-37.250000,4037.250000
