timestamp,Gyro_x,Gyro_y,Gyro_z,Accel_x,Accel_y,Accel_z,Mag_x,Mag_y,Mag_z
1730836520866,-2.200000,0.493800,0.955100,0.013100,0.206500,9.698600,-5.250000,-85.000000,4049.500000
1730836520868,-2.142800,0.457100,0.942800,0.010700,0.210700,9.702800,-4.500000,-88.000000,4051.250000
1730836520868,-2.142800,0.485700,0.987700,0.005300,0.199900,9.695600,-2.250000,-83.500000,4048.250000
1730836520868,-2.175500,0.514200,0.951000,0.020900,0.201100,9.686000,-8.750000,-84.000000,4044.250000
1730836520869,-2.146900,0.530600,0.910200,0.013700,0.223900,9.713000,-5.750000,-93.500000,4055.500000
1730836520869,-2.265300,0.502000,0.930600,0.041300,0.162200,9.638100,-17.250000,-85.750000,4050.750000
1730836520869,-2.187700,0.828500,0.975500,0.237100,0.199300,9.532700,-99.000000,-83.250000,3980.250000
1730836520870,-2.187700,0.485700,0.995900,0.000000,0.238300,9.727300,0.000000,-99.500000,4061.500000
1730836520870,-2.232600,0.522400,0.946900,0.014300,0.198700,9.678200,-6.000000,-83.000000,4041.000000
1730836520870,-2.212200,0.404000,0.995900,0.014900,0.212500,9.711200,-1.500000,-92.750000,4063.000000
1730836520870,-2.053000,0.465300,0.934600,0.001100,0.196300,9.701000,0.500000,-82.000000,4050.500000
1730836520870,-2.228500,0.542800,0.951000,0.011300,0.199900,9.693800,-4.750000,-83.500000,4047.500000
1730836520870,-2.130600,0.489700,0.930600,0.006500,0.219100,9.702800,-2.750000,-91.500000,4051.250000
1730836520871,-2.118300,0.428500,0.889700,0.004100,0.202900,9.700400,-2.750000,-86.000000,4050.000000
1730836520871,-2.183600,0.453000,0.918300,0.008900,0.217900,9.698600,-3.750000,-91.000000,4049.500000
1730836520871,-2.220400,0.481600,0.889700,0.037700,0.178400,9.643500,-15.750000,-74.500000,4026.500000
1730836520871,-2.167300,0.465300,0.967300,0.042500,0.196900,9.686600,-17.750000,-82.250000,4044.500000
1730836520898,-2.236700,0.538700,-1.012200,0.041900,0.198100,9.695000,-16.250000,-83.250000,4051.250000
1730836520997,-2.171400,0.461200,0.951000,0.042500,0.194500,9.694400,-17.750000,-81.250000,4047.750000
1730836521097,-2.134600,0.502000,0.951000,0.047900,0.201100,9.698600,-20.000000,-84.000000,4049.500000
1730836521197,-2.142800,0.465300,0.910200,0.046100,0.201700,9.707600,-19.250000,-84.250000,4053.250000
1730836521296,-2.228500,0.461200,0.959100,0.035900,0.207700,9.698000,-13.250000,-86.750000,4049.250000
1730836521396,-2.179500,0.477500,0.959100,0.040700,0.189200,9.714100,-17.000000,-79.000000,4056.000000
1730836521496,-2.089700,0.489700,0.926500,0.042500,0.203500,9.704000,-17.750000,-85.000000,4051.750000
1730836521595,-2.212200,0.481600,0.971400,0.040700,0.185000,9.698600,-17.000000,-77.250000,4049.500000
1730836521695,-2.253000,0.440800,0.955100,0.038900,0.198700,9.715900,-16.250000,-83.000000,4056.750000
1730836521794,-2.179500,0.473400,0.987700,0.037700,0.191000,9.698600,-16.750000,-81.500000,4047.250000
1730836521894,-2.195900,0.477500,-1.004000,0.058600,0.201700,9.686600,-24.500000,-84.250000,4044.500000
1730836521994,-2.208100,0.477500,0.942800,0.046100,0.193300,9.700400,-19.250000,-80.750000,4050.250000
1730836522094,-2.187700,0.477500,0.979500,0.047300,0.201700,9.695000,-19.750000,-84.250000,4048.000000
1730836522193,-2.163200,0.510200,0.942800,0.041300,0.195700,9.694400,-15.250000,-83.250000,4052.750000
1730836522293,-2.232600,0.522400,0.983600,0.052000,0.196300,9.686000,-21.750000,-82.000000,4044.250000
1730836522393,-2.208100,0.461200,0.963200,0.039500,0.199300,9.704600,-16.500000,-83.250000,4052.000000
1730836522493,-2.167300,0.448900,0.889700,0.038900,0.197500,9.701000,-16.250000,-82.500000,4050.500000
1730836522592,-2.257100,0.522400,-1.036700,0.034700,0.199900,9.699200,-19.250000,-82.250000,4053.750000
1730836522692,-2.228500,0.481600,0.942800,0.055000,0.201100,9.700400,-23.000000,-84.000000,4050.250000
1730836522792,-2.204000,0.522400,0.942800,0.053800,0.196900,9.647100,-22.500000,-82.250000,4028.000000
1730836522891,-2.216300,0.514200,0.967300,0.040100,0.194500,9.679400,-16.750000,-81.250000,4041.500000
1730836522991,-2.228500,0.473400,0.934600,0.046100,0.202300,9.695600,-16.250000,-84.500000,4048.250000
1730836523091,-2.187700,0.493800,0.934600,0.041900,0.198100,9.696800,-17.500000,-82.750000,4048.750000
1730836523190,-2.085700,0.436700,0.959100,0.033500,0.190400,9.708200,-14.000000,-79.500000,4053.500000
1730836523290,-2.130600,0.424400,0.963200,0.035900,0.188600,9.647700,-15.000000,-78.750000,4028.250000
1730836523389,-2.159100,0.526500,0.946900,0.052000,0.186800,9.656700,-21.750000,-78.000000,4032.000000
1730836523489,-2.106100,0.448900,0.865300,0.041900,0.195100,9.700400,-15.000000,-82.500000,4049.500000
1730836523588,-2.130600,0.477500,0.930600,0.006500,0.184400,9.718300,-2.750000,-77.000000,4057.750000
1730836523689,-2.122400,0.457100,0.914200,0.036500,0.196900,9.711800,-15.250000,-82.250000,4055.000000
1730836523789,-2.061200,0.448900,0.881600,0.032900,0.208900,9.710000,-13.750000,-87.250000,4054.250000
1730836523887,-2.142800,0.473400,0.922400,0.040700,0.198700,9.692600,-16.000000,-86.750000,4050.250000
1730836523988,-2.163200,0.510200,0.975500,0.042500,0.208300,9.684800,-17.750000,-87.000000,4043.750000
1730836524088,-2.208100,0.444800,0.979500,0.041300,0.202300,9.686000,-17.250000,-84.500000,4044.250000
1730836524187,-2.151000,0.481600,0.946900,0.040100,0.191600,9.696800,-16.750000,-80.000000,4048.750000
1730836524287,-2.175500,0.497900,0.963200,0.047300,0.198700,9.696200,-18.750000,-80.000000,4046.750000
1730836524387,-2.114200,0.465300,0.967300,0.054400,0.200500,9.693200,-22.750000,-83.750000,4047.250000
1730836524486,-2.146900,0.428500,0.885700,0.041900,0.201100,9.699800,-17.500000,-84.000000,4050.000000
1730836524585,-2.146900,0.448900,0.922400,0.035300,0.195100,9.696800,-14.750000,-81.500000,4048.750000
1730836524685,-2.118300,0.485700,0.951000,0.063400,0.192700,9.687200,-24.500000,-83.250000,4044.750000
1730836524785,-2.204000,0.534600,0.938700,0.038900,0.186200,9.688400,-16.250000,-77.750000,4045.250000
1730836524885,-2.220400,0.424400,0.971400,0.028100,0.204700,9.698000,-11.750000,-85.500000,4049.250000
1730836524984,-2.220400,0.497900,0.971400,0.047300,0.186200,9.701600,-19.750000,-77.750000,4050.750000
1730836525085,-2.130600,0.391800,-1.016300,0.032900,0.219700,9.694400,-13.750000,-91.750000,4047.750000
1730836525184,-2.261200,0.534600,0.861200,0.044900,0.193300,9.702800,-18.750000,-73.250000,4056.750000
1730836525284,-2.110200,0.424400,0.938700,0.040700,0.192200,9.690200,-17.000000,-80.250000,4046.000000
1730836525383,-2.179500,0.448900,0.979500,0.041900,0.196300,9.708800,-17.500000,-82.000000,4053.750000
1730836525483,-2.212200,0.391800,0.951000,0.040100,0.199900,9.699200,-16.750000,-83.500000,4049.750000
1730836525583,-1.869300,0.477500,-1.122400,0.061000,0.182600,9.688400,-31.000000,-62.250000,4050.000000
1730836525683,-2.102000,0.473400,-1.395900,0.064000,0.280200,9.692000,-26.750000,-117.000000,4046.750000
1730836525781,-1.938700,0.379500,0.755100,0.038900,0.223900,9.692600,-16.250000,-93.500000,4047.000000
1730836525882,-2.048900,0.408100,0.983600,0.043700,0.186200,9.711200,-18.250000,-77.750000,4054.750000
1730836525982,-2.142800,0.436700,0.885700,0.033500,0.203500,9.702800,-17.250000,-81.250000,4054.500000
1730836526082,-2.306100,0.432600,0.926500,0.056200,0.219700,9.696800,-23.500000,-91.750000,4048.750000
1730836526181,-2.244800,0.530600,-1.012200,0.057400,0.207100,9.723700,-24.000000,-86.500000,4060.000000
1730836526280,-1.787700,0.285700,0.824400,0.024500,0.193300,9.699800,-10.250000,-80.750000,4050.000000
1730836526381,-1.102000,0.326500,-1.016300,0.039500,0.204100,9.773400,-2.000000,-100.000000,4058.500000
1730836526480,-2.612200,0.628500,-4.269300,0.050200,0.378400,9.709400,-21.000000,-158.000000,4054.000000
1730836526580,-2.926500,0.595900,1.424400,0.122100,0.089800,9.723100,-51.000000,-37.500000,4059.750000
1730836526680,-6.738700,-3.089700,0.424400,0.122700,0.192200,9.856100,-51.250000,-80.250000,4115.250000
1730836526779,-9.783600,1.857100,-1.555100,0.175400,0.004100,9.855500,-73.250000,-1.750000,4115.000000
1730836526879,-8.061200,7.820400,0.595900,0.233500,0.570600,9.829100,-97.500000,252.500000,4127.250000
1730836526978,7.146900,0.057100,0.889700,0.075400,0.379600,10.006300,31.500000,158.500000,4178.000000
1730836527079,10.204000,-4.126500,-1.689700,0.316700,0.151400,9.098600,-132.250000,-63.250000,3799.000000
1730836527178,-1.681600,-8.995900,0.873400,0.099300,0.331700,9.627900,41.500000,-138.500000,4020.000000
1730836527277,0.134600,0.595900,0.248900,0.207700,0.482500,9.446500,-106.000000,-224.750000,3925.000000
1730836527377,-8.922400,3.526500,-1.114200,0.022700,0.235300,9.675800,9.500000,-98.250000,4040.000000
1730836527477,-5.828500,0.755100,-1.391800,0.206500,0.077800,9.933300,-86.250000,32.500000,4147.500000
1730836527577,-1.926500,2.248900,0.163200,0.245400,0.028700,9.681200,102.500000,-12.000000,4042.250000
1730836527676,-2.257100,0.355100,0.600000,0.037100,0.047300,9.789000,22.250000,5.250000,4092.250000
1730836527775,1.730600,-5.493800,0.902000,0.024500,0.037700,9.714100,-10.250000,-15.750000,4056.000000
1730836527876,4.012200,-2.457100,-2.057100,0.082000,0.204700,9.368100,-34.250000,-85.500000,3911.500000
1730836527976,-3.563200,3.187700,-2.253000,0.052600,0.485500,9.314200,-22.000000,-202.750000,3889.000000
1730836528075,-3.759100,3.902000,-1.877500,0.097500,0.137700,9.874600,40.750000,-58.250000,4101.250000
1730836528174,-2.481600,4.857100,-2.930600,0.301700,0.107700,10.031500,126.000000,-45.000000,4188.500000
1730836528275,-2.216300,3.885700,-3.481600,0.268800,0.339400,9.501600,112.250000,-141.750000,3967.250000
1730836528375,-7.502000,22.669300,-4.942800,0.981300,0.195700,9.497400,409.750000,-81.750000,3965.500000
1730836528474,-2.061200,-5.106100,0.595900,0.947800,0.034700,9.677600,395.750000,-14.500000,4040.750000
1730836528574,-3.726500,-6.910200,0.534600,0.670600,0.073000,9.771600,280.000000,31.250000,4107.250000
1730836528674,0.910200,-10.885700,1.318300,0.468800,0.084400,9.648900,195.750000,-35.250000,4028.750000
1730836528772,-1.220400,-11.093800,2.648900,0.090400,0.189200,9.949500,37.750000,-79.000000,4154.250000
1730836528873,3.216300,0.763200,-1.412200,0.062200,0.271200,9.826700,-26.000000,-113.250000,4103.000000
1730836528972,2.130600,-2.983600,0.175500,0.055600,0.538200,9.608800,42.500000,-213.000000,4050.000000
1730836529073,5.800000,-5.995900,0.620400,0.244200,0.701700,9.732100,-102.000000,-293.000000,4063.500000
1730836529172,3.024400,-3.542800,-2.220400,0.502900,0.974100,9.388400,-210.000000,-406.750000,3920.000000
1730836529272,-3.346900,-1.951000,0.942800,0.279600,0.999300,9.489000,-116.750000,-417.250000,3962.000000
1730836529372,-5.877500,5.853000,-1.293800,0.249600,0.828600,9.618900,-78.750000,-329.250000,4008.000000
1730836529471,-10.061200,5.261200,-2.261200,0.041300,0.579500,9.550700,-17.250000,-242.000000,3987.750000
1730836529571,-9.620400,4.759100,0.379500,0.035900,0.292100,9.456100,-15.000000,-122.000000,3948.250000
1730836529671,-12.097900,7.697900,-1.563200,0.269400,0.239500,10.140500,112.500000,100.000000,4234.000000
1730836529770,-6.212200,4.889700,-2.424400,0.570600,0.403500,9.789000,178.500000,143.500000,4047.500000
1730836529870,-11.363200,8.665300,-2.334600,0.771700,0.675900,9.721300,322.250000,282.250000,4059.000000
1730836529970,-13.763200,2.632600,0.281600,0.987300,0.940600,9.674600,412.250000,392.750000,4039.500000
1730836530069,-5.522400,-6.959100,2.220400,0.907700,1.107600,9.578200,379.000000,462.500000,3999.250000
1730836530169,4.848900,-13.844800,4.673400,0.276600,0.871700,9.718900,115.500000,364.000000,4058.000000
1730836530269,12.289700,-12.436700,3.432600,0.044300,0.422100,9.489000,-18.500000,176.250000,3977.250000
1730836530368,10.914200,-10.902000,2.314200,0.064000,0.156200,10.224900,26.750000,65.250000,4269.250000
1730836530468,16.114200,-9.179500,0.089700,0.000500,0.722600,8.698700,0.250000,-301.750000,3632.000000
1730836530568,5.665300,0.146900,-1.967300,0.399300,0.490900,10.041700,-166.750000,-205.000000,4192.750000
1730836530668,11.669300,-2.926500,-3.383600,0.165800,0.637000,9.886600,45.000000,-298.250000,4053.250000
1730836530766,-5.926500,18.151000,-8.653000,0.064600,0.792100,9.929700,27.000000,-330.750000,4146.000000
1730836530867,-1.991800,16.693800,-7.355100,0.225700,0.845400,9.350100,94.250000,-353.000000,3904.000000
1730836530967,-14.755100,18.485700,-7.142800,0.659800,0.696300,9.472300,275.500000,-290.750000,3955.000000
1730836531066,-12.134600,5.624400,-1.861200,1.231600,0.490900,9.191400,533.500000,-196.250000,3781.250000
1730836531166,-21.669300,6.706100,-1.008100,1.289700,0.064000,9.713000,538.500000,-26.750000,4055.500000
1730836531266,-6.865300,-13.473400,6.599900,0.908900,0.193900,9.324400,379.500000,81.000000,3893.250000
1730836531365,6.020400,-14.297900,6.844800,1.151400,0.561600,10.530900,480.750000,234.500000,4397.000000
1730836531465,7.000000,-6.167300,5.289700,1.066300,0.158000,9.193800,508.500000,-59.250000,3831.500000
1730836531565,0.738700,11.191800,-1.799900,1.047200,0.050200,9.754300,437.250000,-21.000000,4072.750000
1730836531664,7.681600,31.518300,-6.175500,1.522000,0.375400,9.309400,635.500000,-156.750000,3887.000000
1730836531764,-14.302000,27.551000,-2.334600,2.823100,0.161600,9.950100,1178.750000,67.500000,4154.500000
1730836531864,-3.257100,29.359100,0.224400,4.054100,0.096300,8.179500,1762.000000,40.250000,3415.250000
1730836531963,-5.387700,18.657100,0.004000,4.666000,0.215500,8.199900,1948.250000,90.000000,3423.750000
1730836532063,-3.804000,9.265300,1.081600,4.826500,0.246600,8.186700,2015.250000,103.000000,3418.250000
1730836532163,-10.510200,15.914200,0.751000,5.284000,0.425100,8.065800,2206.250000,177.500000,3367.750000
1730836532263,-12.412200,18.306100,0.432600,5.637200,0.669400,7.449700,2353.750000,279.500000,3110.500000
1730836532362,-5.212200,1.297900,5.224400,6.113200,0.893900,6.891600,2671.250000,423.500000,2868.250000
1730836532462,0.028500,2.657100,1.861200,6.758100,1.034600,6.154000,2821.750000,432.000000,2569.500000
1730836532562,-3.555100,1.987700,-3.804000,6.751500,1.072900,6.299400,2819.000000,448.000000,2630.250000
1730836532661,-1.771400,14.787700,-6.644800,7.303000,0.776500,6.327000,3049.250000,324.250000,2641.750000
1730836532761,-4.861200,10.048900,-3.465300,6.497600,0.886700,6.583900,2598.500000,325.500000,2719.750000
1730836532861,-1.118300,17.457100,0.012200,7.383200,0.753200,5.327100,3082.750000,314.500000,2224.250000
1730836532960,-1.457100,7.036700,0.065300,7.756200,0.883700,5.088200,3238.500000,369.000000,2124.500000
1730836533060,4.877500,4.889700,0.828500,7.708300,0.729800,5.172000,3218.500000,304.750000,2159.500000
1730836533159,9.489700,0.677500,-2.502000,7.537100,0.373000,4.851700,3132.500000,132.250000,1972.250000
1730836533260,13.253000,-1.963200,-3.759100,7.738300,0.182000,5.039100,3231.000000,76.000000,2104.000000
1730836533359,12.436700,0.759100,-3.975500,8.193900,0.004100,5.493500,3421.250000,-1.750000,2293.750000
1730836533459,3.853000,0.297900,-2.685700,7.857400,0.505900,4.848700,3280.750000,-211.250000,2024.500000
1730836533559,-3.167300,12.567300,-2.759100,8.389700,0.649000,4.408600,3468.750000,-271.000000,1840.750000
1730836533659,-22.861200,7.832600,-2.151000,8.352000,0.294500,4.655900,3487.250000,-123.000000,1974.500000
1730836533758,-9.269300,12.477500,1.600000,7.847200,0.192700,3.776900,3276.500000,-80.500000,1577.000000
1730836533858,-14.159100,8.702000,12.061200,8.782500,0.552000,3.709800,3667.000000,230.500000,1549.000000
1730836533957,-2.126500,9.008100,0.591800,9.681200,0.771100,3.782900,4042.250000,322.000000,1579.500000
1730836534056,14.934600,-13.775500,-3.432600,8.932200,0.344800,2.784800,3632.500000,132.750000,1192.000000
1730836534157,12.416300,-15.106100,-1.285700,8.843600,0.414900,4.205000,3692.500000,173.250000,1755.750000
1730836534256,1.665300,2.861200,-4.375500,8.490900,0.007100,4.260700,3545.250000,3.000000,1779.000000
1730836534355,-15.881600,15.057100,-1.273400,8.729200,0.119700,3.386500,3644.750000,-50.000000,1414.000000
1730836534456,-17.224400,9.995900,6.787700,8.635800,0.201700,2.735700,3698.250000,106.750000,1105.750000
1730836534556,-27.808100,-4.032600,10.546900,8.994400,1.049600,3.294900,3755.500000,438.250000,1375.750000
1730836534656,-20.730600,-28.224400,17.102000,8.485500,1.591400,3.564900,3543.000000,664.500000,1488.500000
1730836534755,-16.995900,-34.763200,17.461200,8.836400,2.412900,3.941000,3689.500000,1007.500000,1645.500000
1730836534855,-1.383600,-28.714200,17.722400,7.186200,3.119500,5.037900,2948.500000,1277.000000,1931.500000
1730836534954,-6.224400,-36.085700,24.436700,6.324600,3.673300,6.022200,2640.750000,1533.750000,2514.500000
1730836535054,-1.628500,-25.391800,14.012200,5.143300,4.166700,7.481400,2147.500000,1739.750000,3123.750000
1730836535154,6.163200,-22.779500,12.706100,4.302000,4.276900,7.255100,1796.250000,1785.750000,3029.250000
1730836535254,16.616300,-19.310200,6.673400,3.777500,3.632000,8.116100,1577.250000,1516.500000,3388.750000
1730836535354,22.575500,-13.555100,0.400000,3.251800,3.094300,8.554400,1357.750000,1228.000000,3688.750000
1730836535453,33.302000,-16.036700,0.428500,2.748800,1.824400,8.404700,1147.750000,761.750000,3509.250000
1730836535553,33.653000,-20.102000,0.514200,1.874100,1.228000,8.916600,782.500000,512.750000,3723.000000
1730836535653,17.914200,-11.538700,-5.351000,1.340000,0.279600,9.486000,559.500000,116.750000,3960.750000
1730836535752,13.857100,-13.718300,-5.146900,1.368700,0.311300,9.091400,505.750000,-231.750000,3813.750000
1730836535852,5.800000,6.236700,-9.934600,0.866900,0.706500,9.981200,362.000000,-295.000000,4167.500000
1730836535952,-9.212200,19.571400,-12.775500,1.865100,-1.223800,8.830400,778.750000,-511.000000,3687.000000
1730836536051,-7.616300,12.714200,-8.485700,2.420100,0.970500,8.819600,1010.500000,-405.250000,3682.500000
1730836536151,0.530600,-5.016300,-6.106100,3.124900,0.472400,8.755500,1305.500000,-648.250000,3568.500000
1730836536251,1.469300,-37.257100,-4.159100,2.620700,0.165200,10.221900,1094.250000,69.000000,4268.000000
1730836536350,9.726500,-14.473400,-2.020400,0.174800,-2.190800,9.812300,-73.000000,-914.750000,4097.000000
1730836536450,6.314200,8.514200,-5.232600,0.491500,-1.214800,9.478800,205.250000,-507.250000,3957.750000
1730836536550,0.163200,5.889700,-3.763200,1.323200,-1.274100,8.856700,695.500000,-909.250000,3698.000000
1730836536650,-2.440800,-4.779500,-3.167300,0.969900,-1.827900,9.423200,405.000000,-763.250000,3934.500000
1730836536749,4.257100,4.608100,-4.257100,0.799900,-1.786000,9.896800,334.000000,-745.750000,4132.250000
1730836536849,3.248900,25.032600,-5.991800,1.087300,-2.253100,9.532700,454.000000,-940.750000,3980.250000
1730836536949,1.465300,-12.310200,-1.510200,3.055400,-2.122500,8.758500,1275.750000,-886.250000,3657.000000
1730836537049,9.342800,-23.559100,1.281600,1.638700,-2.571000,9.081300,684.250000,-1049.000000,3848.250000
1730836537148,0.918300,-13.036700,-1.910200,0.907100,-2.895500,9.195600,378.750000,-1209.000000,3839.500000
1730836537247,0.979500,-3.583600,-2.146900,0.462200,-2.678200,9.667400,193.000000,-1118.250000,4036.500000
1730836537348,-12.832600,4.212200,-4.453000,1.004700,-3.104500,8.677700,419.500000,-1296.250000,3623.250000
1730836537447,-24.742800,13.428500,-3.302000,1.013000,-2.331500,8.993200,457.500000,-894.750000,3782.500000
1730836537546,-11.730600,8.640800,-3.048900,0.880100,-1.055000,10.366800,367.500000,-440.500000,4328.500000
1730836537646,-2.236700,-13.326500,0.775500,1.290900,-1.604000,8.772900,539.000000,-669.750000,3663.000000
1730836537745,-4.906100,-2.448900,-1.620400,0.526300,-1.343000,9.802800,219.750000,-560.750000,4093.000000
1730836537846,-4.848900,15.779500,-1.971400,0.848400,-1.134000,10.099700,420.250000,-464.750000,4170.500000
1730836537946,5.183600,-6.457100,1.702000,1.666900,-1.395000,8.575300,696.000000,-582.500000,3580.500000
1730836538045,6.902000,-35.522400,2.599900,0.546600,-1.487900,9.414200,228.250000,-621.250000,3930.750000
1730836538145,-2.012200,0.840800,-2.073400,0.698700,-1.739900,9.913500,-291.750000,-726.500000,4139.250000
1730836538245,-7.857100,9.832600,-3.012200,0.228700,-1.659100,9.566300,79.500000,-685.250000,4036.000000
1730836538344,-2.314200,-1.767300,0.240800,0.313100,-1.624400,9.182500,130.750000,-678.250000,3834.000000
1730836538444,7.669300,-15.404000,1.726500,0.113100,-1.426200,9.837500,-47.250000,-595.500000,4107.500000
1730836538543,5.795900,11.506100,-1.093800,0.501700,-2.095000,9.700400,-209.500000,-874.750000,4050.250000
1730836538643,-8.518300,-3.448900,-1.991800,0.067600,-2.293200,9.014800,4.250000,-957.500000,3764.000000
1730836538743,-15.220400,7.983600,-1.767300,0.005300,-2.002200,8.884900,2.250000,-836.000000,3709.750000
1730836538842,-6.069300,4.800000,0.306100,0.389100,-1.118400,9.753700,162.500000,-467.000000,4072.500000
1730836538942,7.877500,-1.469300,0.922400,0.143700,-1.222000,9.899200,60.000000,-510.250000,4133.250000
1730836539042,-4.199900,-1.097900,-2.697900,0.391500,-1.556700,9.459700,163.500000,-650.000000,3949.750000
1730836539141,3.506100,0.420400,0.085700,0.265200,-1.695000,9.582400,110.750000,-725.000000,3967.000000
1730836539241,-8.571400,1.861200,-7.836700,0.382000,-1.384300,9.562100,159.500000,-578.000000,3992.500000
1730836539341,-7.465300,-2.314200,-11.616300,0.438800,0.996900,9.608800,183.250000,-416.250000,4012.000000
1730836539440,1.085700,-3.163200,-4.828500,0.025700,-1.254300,9.193800,10.750000,-523.750000,3838.750000
1730836539541,-17.763200,8.408100,-22.106100,0.161600,-1.236400,10.035700,-21.500000,-440.500000,4135.250000
1730836539640,-1.216300,0.053000,-8.199900,0.059800,0.891500,9.735700,-25.000000,-372.250000,4065.000000
1730836539740,-2.616300,-9.567300,-11.281600,0.031100,0.807700,9.519600,-13.000000,-337.250000,3974.750000
1730836539839,-8.861200,7.583600,5.571400,0.406500,0.081400,9.551900,169.750000,-34.000000,3988.250000
1730836539939,0.342800,-8.681600,0.665300,-1.113600,-2.355500,10.119500,-808.500000,-1137.250000,4162.000000
1730836540039,0.265300,-2.522400,2.273400,0.356200,0.456800,9.935100,-148.750000,-190.750000,4148.250000
1730836540138,-7.244800,-3.991800,-2.840800,0.104100,0.674700,10.102100,-43.500000,-281.750000,4218.000000
1730836540238,-4.289700,-3.926500,0.861200,0.266400,-1.200500,8.757900,-111.250000,-501.250000,3656.750000
1730836540337,1.334600,-1.228500,1.840800,0.250800,0.130500,10.289600,-139.750000,-141.500000,4150.500000
1730836540437,-8.697900,-11.191800,0.775500,0.068200,0.474800,10.250000,28.500000,-198.250000,4279.750000
1730836540537,-1.440800,-6.395900,2.200000,1.342400,0.604700,11.364300,560.500000,-252.500000,4745.000000
1730836540637,4.653000,1.934600,-13.179500,-1.258500,0.772900,8.211300,-525.500000,-322.750000,3428.500000
1730836540736,-1.408100,1.885700,-14.538700,0.037100,0.124500,10.041100,-51.750000,-21.000000,4192.500000
1730836540835,-2.591800,-5.530600,-19.828500,0.818400,0.150800,10.072200,-341.750000,-63.000000,4205.500000
1730836540936,1.902000,0.265300,-18.244800,0.577100,0.619700,9.609400,-241.000000,-258.750000,4012.250000
1730836541036,-2.542800,6.142800,-20.077500,0.576600,0.579500,10.477000,-240.750000,-242.000000,4374.500000
1730836541135,0.310200,4.971400,-11.877500,-1.346000,-1.157300,9.682400,-562.000000,-483.250000,4042.750000
1730836541234,0.742800,0.824400,-10.591800,-2.356100,0.943600,8.766300,-983.750000,-385.750000,3661.750000
1730836541335,-1.506100,1.293800,-5.134600,-1.412400,0.544800,9.759100,-589.750000,-227.500000,4074.750000
1730836541434,-4.138700,1.146900,-1.506100,-2.612900,0.771700,8.978300,-1091.000000,-322.250000,3748.750000
1730836541534,-1.453000,-2.673400,6.685700,-1.892000,0.656800,9.588400,-790.000000,-274.250000,4003.500000
1730836541634,-1.371400,-5.734600,11.787700,-1.717200,0.860400,9.507000,-716.500000,-368.000000,3911.750000
1730836541732,-4.746900,2.391800,13.685700,-2.204600,0.095800,10.007500,-920.500000,40.000000,4178.500000
1730836541833,-4.722400,0.673400,22.000000,-1.489700,0.751400,8.834000,-622.000000,-313.750000,3688.500000
1730836541932,-2.693800,-4.387700,17.044800,-1.246000,0.571200,9.016600,-520.250000,-238.500000,3764.750000
1730836542033,-3.257100,-11.048900,21.893800,0.027500,0.526900,10.354800,-122.000000,-305.500000,4137.000000
1730836542132,-8.020400,0.036700,21.595900,0.767600,0.304700,10.470400,-320.500000,127.250000,4371.750000
1730836542232,-6.669300,-5.453000,16.371400,0.302300,0.468800,9.366300,-126.250000,-195.750000,3910.750000
1730836542331,-2.551000,-2.387700,15.142800,0.547800,0.966900,9.508200,228.750000,-403.750000,3970.000000
1730836542430,-1.126500,1.893800,5.195900,0.315500,0.373600,9.412400,-120.500000,-163.250000,3944.750000
1730836542530,-2.269300,-1.502000,2.232600,0.277200,0.502300,9.407600,-115.750000,-209.750000,3928.000000
1730836542630,-2.506100,1.824400,1.579500,0.002900,0.176600,10.069800,1.250000,-73.750000,4204.500000
1730836542730,0.224400,2.106100,-3.632600,1.595000,0.092200,10.397900,666.000000,38.500000,4341.500000
1730836542830,8.126500,-3.877500,-17.334600,3.397300,0.342400,10.889500,1427.250000,-143.000000,4546.750000
1730836542929,4.020400,-2.240800,-44.159100,-2.024900,0.135900,8.497500,-845.500000,56.750000,3509.750000
1730836543029,9.004000,8.979500,-42.212200,-1.400400,0.632800,9.561500,-584.750000,-264.250000,3992.250000
1730836543129,-7.587700,-3.861200,-34.444800,-4.053500,0.314900,9.238700,-1692.500000,131.500000,3857.500000
1730836543228,-7.644800,3.816300,-6.334600,-4.472600,0.022700,9.739300,-1867.500000,9.500000,4066.500000
1730836543328,-8.416300,2.620400,13.653000,-3.811600,0.173600,9.650100,-1495.250000,73.750000,4109.500000
1730836543428,-3.914200,8.375500,22.481600,-4.408600,1.080100,9.175300,-1840.750000,451.000000,3831.000000
1730836543528,-1.791800,-5.722400,33.359100,-1.757900,0.454400,8.073000,-734.000000,-189.750000,3370.750000
1730836543626,-2.061200,-1.351000,34.685700,1.462700,0.277200,10.158400,610.750000,-115.750000,4241.500000
1730836543727,-1.044800,-10.163200,19.510200,0.629200,0.293900,9.074100,361.000000,-108.250000,3835.000000
1730836543826,-1.742800,-6.681600,3.640800,0.766400,0.430500,9.232200,320.000000,-179.750000,3854.750000
1730836543925,-4.448900,-2.069300,0.200000,0.463400,0.652600,10.037500,193.500000,-272.500000,4191.000000
1730836544026,-1.322400,3.575500,-2.073400,0.874100,0.521500,9.684800,-365.000000,-217.750000,4043.750000
1730836544126,0.832600,0.481600,-4.191800,-1.295700,0.243000,9.505200,-532.500000,-123.500000,3942.750000
1730836544225,0.967300,-3.889700,-5.220400,0.536400,0.419100,9.882400,224.000000,-175.000000,4126.250000
1730836544324,-1.485700,6.440800,-19.375500,1.942900,0.328700,10.017700,811.250000,-137.250000,4182.750000
1730836544425,0.293800,5.155100,-33.159100,1.651900,0.487900,10.116500,689.750000,-203.750000,4224.000000
1730836544524,0.134600,7.967300,-47.706100,0.584300,0.134100,9.932700,-327.000000,140.750000,4131.000000
1730836544623,6.963200,0.122400,-28.200000,-3.653000,0.378400,7.971200,-1525.250000,-158.000000,3328.250000
1730836544724,-6.551000,0.204000,-12.583600,-6.382100,1.401000,9.528500,-2664.750000,585.000000,3978.500000
1730836544823,-4.787700,1.563200,19.967300,-3.708000,0.018500,9.248300,-1548.250000,-7.750000,3861.500000
1730836544923,-7.502000,-5.081600,28.077500,-4.369700,0.756800,9.226200,-1824.500000,316.000000,3852.250000
1730836545023,-5.910200,2.763200,52.783600,1.010600,1.002900,11.329000,422.000000,290.750000,4666.000000
1730836545122,-1.783600,3.930600,39.612200,5.292300,0.537000,10.966100,2209.750000,-224.250000,4578.750000
1730836545222,-1.024400,3.277500,6.922400,1.980000,0.000500,9.325000,826.750000,0.250000,3893.500000
1730836545322,-1.457100,-8.220400,-4.277500,0.284400,0.271200,9.176500,-118.750000,-113.250000,3831.500000
1730836545422,-3.530600,-3.771400,-1.702000,0.329300,0.271800,9.886600,-178.500000,-146.750000,4073.000000
1730836545520,-2.616300,1.281600,-5.763200,0.679500,0.436400,9.342300,-283.750000,-182.250000,3900.750000
1730836545621,-4.673400,-2.110200,-2.742800,-1.081900,0.096300,9.832100,-451.750000,-40.250000,4105.250000
1730836545720,-1.612200,1.342800,-1.306100,0.595100,0.377800,9.611200,-248.500000,-157.750000,4013.000000
1730836545820,-5.053000,2.151000,-4.677500,0.537600,0.269400,10.102100,-199.250000,-19.250000,4268.500000
1730836545920,0.804000,1.624400,1.171400,0.365200,0.686100,9.574600,-152.500000,-286.500000,3997.750000
1730836546019,-1.461200,1.518300,1.563200,-1.014200,0.112500,9.648900,-423.500000,47.000000,4028.750000
1730836546119,0.951000,-1.248900,-1.538700,0.775300,0.165800,9.442900,-323.750000,-69.250000,3942.750000
1730836546219,0.395900,0.959100,0.763200,0.700500,0.134700,9.560900,-246.500000,-62.750000,3927.500000
1730836546319,-3.514200,-1.534600,0.151000,0.557400,0.195100,10.042900,-232.750000,81.500000,4193.250000
1730836546418,-4.922400,0.253000,-2.293800,0.377800,0.251400,9.973400,-157.750000,-105.000000,4164.250000
1730836546518,0.942800,-2.583600,0.265300,0.543600,0.414300,9.516600,-227.000000,-173.000000,3973.500000
1730836546618,-2.440800,0.200000,-1.110200,0.553800,0.435200,9.814700,-151.500000,-144.000000,4098.000000
1730836546717,-1.514200,0.530600,1.334600,0.719100,0.131100,9.786000,-300.250000,-54.750000,4086.000000
1730836546817,-1.542800,0.644800,0.902000,0.581300,0.402300,9.653100,-242.750000,-168.000000,4030.500000
1730836546916,0.775500,2.726500,0.640800,0.237100,0.480200,9.720700,-99.000000,-200.500000,4058.750000
1730836547016,-6.742800,11.938700,-8.583600,5.015700,0.099900,12.510300,2094.250000,41.750000,5223.500000
1730836547117,22.755100,-28.848900,-110.746900,-6.071300,0.723800,5.634800,-3175.000000,1611.250000,2203.250000
1730836547216,-4.906100,11.073400,9.636700,-3.890100,-1.281300,9.648900,-1624.250000,-535.000000,4028.750000
1730836547315,0.093800,0.987700,13.812200,-2.206400,0.787900,8.828000,-921.250000,-329.000000,3686.000000
1730836547415,-6.371400,4.122400,11.812200,0.348400,0.444200,9.932700,145.500000,-185.500000,4147.250000
1730836547515,-8.089700,5.579500,9.567300,0.059200,0.615500,9.590800,40.250000,-172.000000,4028.500000
1730836547614,-9.440800,-9.436700,7.457100,1.587200,0.132900,11.109200,662.750000,-55.500000,4638.500000
1730836547714,-2.065300,3.236700,0.081600,0.140700,0.541800,9.442900,-58.750000,-226.250000,3942.750000
1730836547814,-2.191800,2.534600,2.477500,0.296300,0.641200,9.265100,-123.750000,-267.750000,3868.500000
1730836547912,-2.836700,-4.640800,0.146900,0.079000,0.505900,9.806400,-33.500000,-186.750000,4040.750000
1730836548013,-2.310200,0.477500,0.000000,0.166400,0.200500,9.859600,-69.500000,-83.750000,4116.750000
1730836548113,0.946900,0.016300,0.657100,0.086200,0.693900,9.519000,36.000000,-289.750000,3974.500000
1730836548212,-4.077500,-4.624400,-3.314200,0.086200,0.019100,10.321300,36.000000,-8.000000,4309.500000
1730836548311,-2.346900,0.522400,0.200000,0.034700,0.550200,9.616000,15.250000,-223.250000,4009.750000
1730836548411,-2.779500,-1.085700,-1.865300,0.282000,0.226900,9.653100,-117.750000,-94.750000,4030.500000
1730836548512,-3.302000,-2.020400,-3.208100,0.422700,0.374200,9.411200,-176.500000,-156.250000,3929.500000
1730836548611,-3.089700,-2.444800,1.469300,0.997500,0.091600,9.577000,-416.500000,-38.250000,3998.750000
1730836548711,-6.665300,4.032600,22.914200,1.065100,0.715500,9.784200,444.750000,298.750000,4085.250000
1730836548811,1.877500,-13.930600,-71.963200,8.735800,-3.049400,9.612400,3647.500000,-697.250000,3849.250000
1730836548911,0.763200,-7.489700,-21.289700,-11.499000,3.981100,10.401500,-4801.250000,1662.250000,4343.000000
1730836549010,-7.138700,31.399900,76.489700,-2.180000,1.943500,7.207800,-910.250000,811.500000,3009.500000
1730836549110,0.457100,-4.204000,7.461200,10.685300,-2.188400,10.975700,4461.500000,-913.750000,4582.750000
1730836549210,1.787700,-28.975500,-70.722400,-1.139400,0.795100,8.187300,-1671.250000,727.000000,3275.250000
1730836549309,2.400000,-1.779500,21.293800,-9.463900,2.791900,8.323800,-3951.500000,1165.750000,3475.500000
1730836549409,-9.546900,8.808100,22.840800,7.073000,-1.686600,12.287600,2953.250000,-704.250000,5130.500000
1730836549508,-2.938700,0.848900,-4.408100,0.239500,0.114300,9.143500,-100.000000,-47.750000,3817.750000
1730836549607,0.179500,-1.853000,-5.130600,0.286200,0.199300,9.936900,94.000000,-77.250000,4115.500000
1730836549707,-4.318300,-1.465300,0.718300,0.117900,0.059800,9.557900,-49.250000,-25.000000,3990.750000
1730836549806,-2.069300,2.522400,0.204000,0.282600,0.534600,9.545300,118.000000,-223.250000,3985.500000
1730836549906,-1.444800,0.265300,-1.685700,0.107700,0.398100,9.447100,45.000000,-166.250000,3944.500000
1730836550007,-6.375500,-1.799900,0.065300,0.616700,0.193300,9.765600,264.750000,-57.000000,4166.250000
1730836550106,-2.457100,0.228500,0.159100,0.144200,0.359200,9.562100,60.250000,-150.000000,3992.500000
1730836550206,-5.342800,1.012200,-4.326500,0.018500,0.019700,10.079400,7.750000,8.250000,4208.500000
1730836550306,-3.306100,1.946900,2.726500,0.007700,0.360400,9.583000,3.250000,-150.500000,4001.250000
1730836550405,0.146900,-2.665300,-1.216300,0.778900,0.267000,9.186600,-307.500000,82.500000,3835.750000
1730836550505,-3.428500,-3.661200,0.024400,0.124500,0.158000,9.769200,52.000000,-66.000000,4079.000000
1730836550605,-2.820400,-2.918300,0.240800,0.082600,0.006500,9.955400,34.500000,-2.750000,4156.750000
1730836550705,-1.489700,0.285700,-1.832600,0.338200,0.156200,9.875800,-141.250000,65.250000,4123.500000
1730836550804,-2.959100,0.608100,-3.673400,0.023900,0.629800,9.504000,-10.000000,-263.000000,3968.250000
1730836550904,0.212200,-2.253000,-6.783600,0.759200,0.037700,9.533300,-317.000000,-20.750000,3970.000000
1730836551004,-2.612200,0.114200,-3.175500,0.588500,0.120300,9.740500,-245.750000,-50.250000,4067.000000
1730836551103,-3.061200,0.783600,-1.497900,0.378400,0.293300,9.759700,-158.000000,-122.500000,4075.000000
1730836551203,0.595900,0.763200,2.673400,0.079600,0.228100,10.211100,33.250000,95.250000,4263.500000
1730836551302,-3.730600,10.493800,0.734600,0.473000,0.220900,10.197900,172.500000,-35.250000,4297.500000
1730836551402,-2.102000,0.453000,0.224400,0.424500,0.124500,9.335700,-177.250000,52.000000,3898.000000
1730836551502,0.477500,0.236700,2.473400,0.466400,0.429900,9.623100,194.750000,-179.500000,4018.000000
1730836551602,-1.706100,0.918300,-2.718300,0.271200,0.447200,9.465700,113.250000,-186.750000,3952.250000
1730836551701,-1.587700,-3.265300,4.599900,0.453200,0.202900,9.671600,-133.500000,24.000000,4024.500000
1730836551801,-2.559100,-1.493800,2.106100,0.395700,0.268800,9.811100,-165.250000,112.250000,4096.500000
1730836551899,-1.289700,-2.461200,5.342800,0.003500,0.060400,9.422000,1.500000,25.250000,3934.000000
1730836552000,-2.065300,-3.077500,1.265300,0.293300,0.028700,9.734500,122.500000,12.000000,4064.500000
1730836552100,-3.526500,1.375500,-2.208100,0.119100,0.188600,9.693800,71.750000,-53.250000,4098.250000
1730836552199,-1.995900,0.057100,0.514200,0.099300,0.251400,9.585400,-41.500000,-105.000000,4002.250000
1730836552299,-3.530600,-2.440800,-4.151000,0.309500,0.015500,9.529100,-129.250000,-6.500000,3978.750000
1730836552399,-4.069300,0.167300,-3.636700,0.437600,0.150800,9.890800,182.750000,-63.000000,4129.750000
1730836552499,-4.604000,1.546900,-5.383600,0.181400,0.131700,9.718300,106.250000,-55.000000,4057.750000
1730836552598,-2.326500,7.020400,-6.836700,0.216700,0.243600,9.437500,90.500000,-101.750000,3954.000000
1730836552698,-7.395900,2.906100,-11.138700,0.923800,0.304700,9.809400,385.750000,-127.250000,4095.750000
1730836552797,-9.820400,3.612200,-6.677500,0.486700,0.091000,10.041700,203.250000,-38.000000,4192.750000
1730836552896,-1.755100,2.734600,4.073400,0.276000,0.758000,9.857900,115.250000,316.500000,4116.000000
1730836552997,-12.138700,0.502000,-5.081600,0.000000,0.638200,9.154900,-24.500000,363.750000,3871.750000
1730836553097,0.771400,3.902000,-2.820400,0.926200,0.165200,8.772300,386.750000,-69.000000,3662.750000
1730836553197,-11.269300,7.714200,-4.363200,0.021500,1.552500,10.272200,-9.000000,648.250000,4289.000000
1730836553295,-4.669300,4.930600,22.640800,0.367600,1.211800,8.665100,153.500000,506.000000,3618.000000
1730836553396,3.608100,0.559100,3.991800,0.002900,0.996900,10.127300,479.250000,769.750000,3818.250000
1730836553495,1.359100,-1.877500,9.342800,1.786000,1.280100,9.260300,745.750000,534.500000,3866.500000
1730836553595,15.600000,0.134600,8.322400,3.757100,1.265100,8.816600,1568.750000,528.250000,3681.250000
1730836553695,2.130600,-2.714200,5.844800,0.066400,0.747200,8.875900,27.750000,312.000000,3706.000000
1730836553795,-3.048900,-14.126500,2.191800,2.126100,0.033500,9.996800,687.500000,41.000000,4169.500000
1730836553894,11.616300,8.261200,3.024400,4.185800,0.918400,12.763600,1747.750000,-383.500000,5329.250000
1730836553994,-2.469300,-6.795900,-1.991800,1.080100,-1.104100,9.888400,451.000000,-461.000000,4128.750000
1730836554093,-2.657100,-24.848900,0.363200,1.966900,0.050200,9.283600,821.250000,21.000000,3876.250000
1730836554193,-1.799900,-2.236700,2.742800,0.052000,0.008300,9.859600,59.250000,113.000000,4063.250000
1730836554293,-6.404000,-1.000000,0.383600,1.040000,0.568800,7.788000,434.250000,237.500000,3251.750000
1730836554393,-1.983600,0.718300,0.902000,0.337000,0.240600,9.799200,-140.750000,-100.500000,4091.500000
1730836554492,-2.175500,0.522400,0.869300,0.058000,0.121500,9.683600,-24.250000,-50.750000,4043.250000
1730836554592,-2.273400,0.465300,0.853000,0.089800,0.156800,9.717100,-30.250000,-65.500000,4057.250000
1730836554692,-2.289700,0.518300,0.910200,0.064600,0.149000,9.704600,-27.000000,-62.250000,4048.500000
1730836554791,-2.122400,0.461200,0.848900,0.068800,0.143100,9.705800,-28.750000,-59.750000,4052.500000
1730836554891,-2.102000,0.465300,0.857100,0.088000,0.147200,9.692000,-36.750000,-61.500000,4046.750000
1730836554991,-2.151000,0.506100,0.861200,0.063400,0.144800,9.686000,-26.500000,-60.500000,4044.250000
1730836555090,-2.212200,0.461200,0.877500,0.071200,0.133500,9.686000,-26.250000,-53.000000,4046.500000
1730836555190,-2.183600,0.497900,0.877500,0.064600,0.143100,9.691400,-27.000000,-59.750000,4046.500000
1730836555290,-2.187700,0.469300,0.865300,0.075400,0.137100,9.700400,-31.500000,-57.250000,4050.250000
1730836555389,-2.195900,0.506100,0.820400,0.065800,0.140100,9.700400,-27.500000,-58.500000,4050.250000
1730836555489,-2.187700,0.497900,0.836700,0.064600,0.146000,9.695000,-29.250000,-57.750000,4049.500000
1730836555589,-2.187700,0.518300,0.861200,0.073600,0.146000,9.692600,-30.750000,-61.000000,4047.000000
1730836555688,-2.155100,0.436700,0.877500,0.064000,0.150200,9.692000,-26.750000,-62.750000,4046.750000
1730836555788,-2.126500,0.436700,0.865300,0.070600,0.149000,9.698000,-29.500000,-62.250000,4049.250000
1730836555888,-2.244800,0.485700,0.889700,0.075400,0.137700,9.698000,-30.500000,-58.500000,4051.250000
1730836555988,-2.077500,0.469300,0.881600,0.064600,0.135900,9.699800,-27.000000,-56.750000,4050.000000
1730836556087,-2.208100,0.497900,0.848900,0.072400,0.144200,9.698600,-30.250000,-60.250000,4049.500000
1730836556187,-2.110200,0.489700,0.861200,0.072400,0.144200,9.696200,-30.250000,-60.250000,4048.500000
1730836556286,-2.575500,0.726500,-1.285700,0.673500,0.092800,9.786600,62.000000,56.500000,4086.250000
1730836556385,2.232600,-1.142800,-6.661200,0.083200,0.795700,10.415300,-34.750000,332.250000,4348.750000
1730836556486,-14.946900,7.171400,-1.959100,-2.439900,2.126700,12.562400,-1018.750000,888.000000,5245.250000
1730836556586,-8.648900,23.759100,3.073400,0.040700,0.172400,10.362000,17.000000,72.000000,4326.500000
1730836556685,-3.102000,7.971400,0.379500,1.219600,0.429900,10.766800,509.250000,179.500000,4495.500000
1730836556785,10.865300,-3.648900,0.971400,1.431600,0.405900,8.619000,597.750000,-189.250000,3526.500000
1730836556885,-4.220400,-3.448900,0.710200,1.226200,0.107100,9.715300,512.000000,-44.750000,4056.500000
1730836556984,-4.608100,-10.028500,2.648900,1.104700,0.122700,9.841100,461.250000,51.250000,4109.000000
1730836557084,-2.379500,-25.195900,5.963200,0.053800,0.290900,9.264500,-22.500000,-121.500000,3868.250000
1730836557183,0.963200,-15.199900,2.065300,0.276000,0.019100,9.331500,-106.750000,-23.750000,3926.750000
1730836557283,2.036700,1.314200,0.665300,0.527500,0.210100,9.574000,-220.250000,-87.750000,3997.500000
1730836557383,-1.865300,6.640800,-3.314200,0.424500,0.332900,9.273500,-177.250000,-139.000000,3872.000000
1730836557483,-3.632600,16.114200,-2.465300,0.346600,0.519100,9.495600,144.750000,-216.750000,3964.750000
1730836557583,-5.551000,7.983600,-1.836700,0.508900,0.647200,8.901000,242.000000,-261.000000,3743.000000
1730836557682,-4.432600,9.473400,-1.469300,0.835800,0.099900,10.938000,349.000000,41.750000,4567.000000
1730836557782,-3.232600,2.195900,1.346900,1.386700,0.511900,9.393800,579.000000,-213.750000,3922.250000
1730836557882,-2.330600,-20.538700,5.959100,0.882500,0.256800,8.991500,368.500000,-107.250000,3754.250000
1730836557981,-6.832600,-25.804000,7.673400,0.010100,0.196900,9.691400,-19.500000,-95.250000,4045.750000
1730836558081,8.506100,-18.379500,5.706100,0.983100,0.092800,10.193200,-410.500000,38.750000,4256.000000
1730836558181,6.555100,-2.016300,1.012200,0.673000,0.331700,10.084800,-281.000000,-138.500000,4210.750000
1730836558280,10.787700,5.751000,-3.836700,0.373600,0.859200,9.329100,-156.000000,-358.750000,3895.250000
1730836558380,7.848900,8.857100,-6.934600,0.720300,-1.334000,9.202800,-287.750000,-547.750000,3842.500000
1730836558479,-7.946900,18.236700,-11.142800,0.192200,-1.387900,8.893300,-80.250000,-579.500000,3713.250000
1730836558578,-2.400000,7.240800,-6.714200,0.320300,0.780100,9.659700,133.750000,-325.750000,4033.250000
1730836558679,-13.024400,13.000000,-9.567300,0.713700,0.812500,9.248300,298.000000,-339.250000,3861.500000
1730836558779,-12.118300,0.444800,-4.183600,0.273000,0.542400,8.959100,114.000000,-226.500000,3740.750000
1730836558878,-12.351000,-14.640800,6.616300,0.362200,0.166400,9.438700,151.250000,-81.500000,3820.250000
1730836558978,-9.571400,-8.469300,4.236700,0.050200,0.474200,10.523700,21.000000,198.000000,4394.000000
1730836559077,4.102000,-19.502000,10.146900,0.323300,0.327500,10.336900,-135.000000,136.750000,4316.000000
1730836559177,7.151000,-17.632600,10.028500,-1.474100,0.166400,9.957800,-615.500000,-69.500000,4157.750000
1730836559277,14.334600,0.812200,5.391800,0.835200,0.481900,10.028500,-386.250000,-257.750000,4191.250000
1730836559377,15.342800,4.432600,1.542800,0.630400,-1.144200,9.892600,-263.250000,-477.750000,4130.500000
1730836559476,6.424400,3.620400,-2.171400,0.253800,-1.859700,8.732800,-106.000000,-776.500000,3646.250000
1730836559576,-1.134600,7.355100,-5.248900,0.217300,-1.343000,9.808800,-90.750000,-560.750000,4095.500000
1730836559676,-4.995900,2.844800,-4.400000,0.379000,-1.581900,9.331500,-162.250000,-648.250000,3929.250000
1730836559775,-1.979500,2.551000,-4.730600,0.044900,-1.504600,9.420200,-18.750000,-628.250000,3933.250000
1730836559874,-2.930600,1.453000,-5.485700,0.143700,-1.593200,9.336900,60.000000,-665.250000,3898.500000
1730836559974,-3.910200,11.861200,-9.567300,0.250800,-1.580700,9.386000,-104.750000,-660.000000,3919.000000
1730836560074,-6.971400,12.355100,-8.534600,0.036500,-1.450100,9.353700,33.750000,-611.750000,3891.750000
1730836560174,-6.885700,0.118300,-1.591800,0.058600,-1.341800,9.456700,24.500000,-560.250000,3948.500000
1730836560274,-5.991800,-4.710200,2.400000,0.629200,-1.204600,9.395600,262.750000,-503.000000,3923.000000
1730836560373,-12.159100,-4.775500,3.061200,0.483700,0.756800,9.869200,202.000000,-316.000000,4120.750000
1730836560473,-8.604000,-18.310200,9.134600,0.240100,0.574200,9.793800,-67.000000,-243.750000,4089.250000
1730836560573,-1.126500,-6.902000,1.326500,0.359800,0.364000,10.484100,-150.250000,-152.000000,4377.500000
1730836560673,1.244800,-10.869300,4.767300,-1.082500,0.794500,9.711800,-452.000000,-331.750000,4055.000000
1730836560771,-1.677500,-2.306100,2.306100,0.754400,0.592700,10.019500,-315.000000,-247.500000,4183.500000
1730836560871,4.693800,11.081600,-4.595900,0.621500,0.811900,9.739900,-259.500000,-339.000000,4066.750000
1730836560972,2.469300,19.640800,-9.812200,0.225700,-1.093900,9.117200,107.500000,-459.000000,3768.750000
1730836561071,-4.318300,2.363200,-3.906100,0.647800,0.855600,9.774000,270.500000,-357.250000,4081.000000
1730836561171,-5.151000,2.269300,-6.330600,0.278400,0.954400,9.190200,116.250000,-398.500000,3837.250000
1730836561270,-7.742800,-1.395900,-4.412200,0.184400,0.959800,9.224400,77.000000,-400.750000,3851.500000
1730836561371,-10.946900,-20.020400,6.151000,0.314300,0.703500,9.466900,-46.000000,-296.250000,3959.750000
1730836561470,-10.093800,-24.987700,10.102000,0.742400,0.607700,9.395000,-310.000000,-253.750000,3922.750000
1730836561570,-5.453000,-2.775500,2.559100,0.844200,0.306500,10.571000,-352.500000,-128.000000,4413.750000
1730836561668,6.457100,7.661200,-3.751000,0.431100,0.655600,9.457300,-180.000000,-273.750000,3948.750000
1730836561769,-5.195900,0.093800,-1.322400,0.421500,-1.122600,9.062700,-230.750000,-444.000000,3828.500000
1730836561868,-2.302000,-3.742800,-4.991800,0.732200,0.622100,8.665700,-305.750000,-259.750000,3618.250000
1730836561967,-9.787700,1.628500,-11.253000,0.422100,0.172400,9.842300,-176.250000,72.000000,4109.500000
1730836562067,5.514200,0.812200,-4.665300,0.171800,0.531600,9.304600,-71.750000,-222.000000,3885.000000
1730836562168,-14.697900,1.200000,-3.351000,0.957400,0.244800,11.140400,-359.500000,-123.500000,4643.250000
1730836562268,-21.751000,9.195900,-2.946900,-2.089600,0.857400,10.377600,-872.500000,358.000000,4333.000000
1730836562367,-2.738700,15.383600,3.461200,-1.367500,0.847200,9.704000,-571.000000,353.750000,4051.750000
1730836562466,-12.669300,2.926500,9.432600,0.678900,1.003500,9.241700,283.500000,419.000000,3858.750000
1730836562567,5.102000,-11.114200,6.955100,0.258000,2.166800,7.491600,107.750000,904.750000,3128.000000
1730836562666,6.689700,2.020400,-2.138700,0.393300,0.746600,9.663900,-228.250000,237.500000,4064.250000
1730836562766,10.134600,8.093800,2.444800,0.150800,0.818400,9.093800,63.000000,341.750000,3797.000000
1730836562866,5.391800,0.555100,1.685700,0.728600,0.862200,9.878200,-304.250000,360.000000,4124.500000
1730836562966,-2.542800,-1.159100,-1.016300,0.254400,0.075400,9.699800,-106.250000,-31.500000,4050.000000
1730836563065,-2.253000,0.432600,0.942800,0.042500,0.105900,9.689600,-15.250000,-39.500000,4044.500000
1730836563165,-2.302000,0.461200,0.983600,0.034100,0.105300,9.694400,-14.250000,-44.000000,4047.750000
1730836563264,-2.244800,0.432600,0.938700,0.038300,0.098700,9.687800,-16.000000,-41.250000,4045.000000
1730836563364,-2.204000,0.428500,0.983600,0.037100,0.110100,9.693200,-15.500000,-46.000000,4047.250000
1730836563463,-1.061200,0.424400,0.930600,0.033500,0.105300,9.698600,-11.500000,-42.500000,4047.750000
1730836563562,-2.269300,0.383600,0.991800,0.036500,0.108300,9.656700,-15.250000,-45.250000,4032.000000
1730836563663,-2.134600,0.448900,0.914200,0.031700,0.113100,9.691400,-13.250000,-47.250000,4046.500000
1730836563763,-2.204000,0.489700,0.975500,0.049000,0.099300,9.693200,-20.500000,-41.500000,4047.250000
1730836563863,-2.261200,0.522400,-1.036700,0.040700,0.110100,9.696200,-18.500000,-46.000000,4048.500000
1730836563962,-2.167300,0.489700,0.951000,0.026900,0.108900,9.704600,-11.250000,-45.500000,4052.000000
1730836564062,-2.338700,0.469300,-1.012200,0.035300,0.102300,9.695000,-14.750000,-42.750000,4048.000000
1730836564161,-2.297900,0.485700,-1.024400,0.041900,0.101100,9.695600,-17.500000,-42.250000,4048.250000
1730836564261,-2.248900,0.497900,0.971400,0.036500,0.101100,9.702200,-15.250000,-42.250000,4051.000000
1730836564361,-2.106100,0.448900,0.942800,0.034700,0.106500,9.687800,-14.500000,-43.250000,4046.000000
1730836564461,-2.261200,0.506100,0.983600,0.034100,0.101100,9.692600,-14.250000,-42.250000,4047.000000
1730836564560,-2.224400,0.469300,0.987700,0.028100,0.110700,9.707600,-11.750000,-46.250000,4053.250000
1730836564660,-2.261200,0.522400,0.975500,0.038300,0.113100,9.690200,-16.000000,-47.250000,4046.000000
1730836564759,-2.118300,0.493800,-1.000000,0.029900,0.111300,9.694400,-19.500000,-43.500000,4050.250000
1730836564859,-2.191800,0.469300,0.963200,0.035300,0.102900,9.696800,-14.750000,-43.000000,4048.750000
1730836564959,-2.236700,0.465300,0.979500,0.044300,0.110700,9.697400,-18.500000,-46.250000,4049.000000
1730836565059,-2.224400,0.436700,0.955100,0.032300,0.101700,9.696200,-13.500000,-42.500000,4048.500000
1730836565159,-2.257100,0.510200,0.995900,0.040100,0.109500,9.696800,-12.000000,-44.750000,4050.000000
1730836565258,-2.187700,0.493800,0.951000,0.035900,0.101100,9.701600,-15.000000,-42.250000,4050.750000
1730836565358,-2.228500,0.453000,-1.016300,0.033500,0.107100,9.693200,-14.000000,-44.750000,4047.250000
1730836565458,-2.146900,0.461200,0.942800,0.039500,0.102300,9.688400,-16.500000,-42.750000,4045.250000
1730836565556,-2.146900,0.461200,0.934600,0.035300,0.104700,9.697400,-13.500000,-47.000000,4049.000000
1730836565657,-2.195900,0.473400,0.938700,0.026900,0.102300,9.692000,-11.250000,-42.750000,4046.750000
1730836565757,-2.146900,0.461200,0.951000,0.034100,0.104700,9.701600,-14.250000,-43.750000,4050.750000
1730836565857,-2.277500,0.477500,-1.012200,0.036500,0.105900,9.690200,-15.250000,-44.250000,4046.000000
1730836565955,-2.167300,0.448900,0.983600,0.037700,0.107100,9.689600,-15.750000,-44.750000,4045.750000
1730836566055,-2.326500,0.534600,0.946900,0.026900,0.105900,9.696800,-11.250000,-44.500000,4047.500000
1730836566156,-2.216300,0.461200,0.987700,0.040100,0.102900,9.690200,-16.750000,-43.000000,4046.000000
1730836566255,-2.110200,0.444800,0.918300,0.039500,0.104700,9.699800,-16.500000,-43.750000,4050.000000
1730836566355,-2.159100,0.485700,0.938700,0.038900,0.107700,9.687800,-16.250000,-45.000000,4045.000000
1730836566455,-2.232600,0.481600,0.979500,0.027500,0.106500,9.692000,-14.750000,-43.500000,4045.000000
1730836566554,-2.191800,0.502000,0.979500,0.029300,0.106500,9.702800,-12.250000,-44.500000,4051.250000
1730836566653,-2.220400,0.481600,-1.000000,0.042500,0.114300,9.691400,-17.750000,-47.750000,4046.500000
1730836566754,-2.208100,0.481600,0.987700,0.031100,0.111900,9.683000,-13.000000,-46.750000,4043.000000
1730836566853,-2.228500,0.526500,-1.000000,0.040100,0.100500,9.696200,-14.250000,-45.500000,4048.500000
1730836566952,-2.159100,0.473400,0.967300,0.030500,0.105300,9.693200,-12.750000,-44.000000,4047.250000
1730836567053,-2.155100,0.530600,0.963200,0.030500,0.102900,9.697400,-12.750000,-43.000000,4049.000000
1730836567153,-2.302000,0.497900,-1.024400,0.036500,0.107700,9.693200,-15.250000,-45.000000,4047.250000
1730836567252,-2.322400,0.461200,0.995900,0.032300,0.108900,9.686000,-16.500000,-44.000000,4044.250000
1730836567352,-2.281600,0.444800,0.987700,0.027500,0.102300,9.702200,-11.500000,-42.750000,4051.000000
1730836567451,-2.159100,0.481600,0.918300,0.036500,0.102300,9.693800,-15.250000,-42.750000,4047.500000
1730836567551,-2.269300,0.436700,0.991800,0.038900,0.108900,9.702200,-16.250000,-45.500000,4051.000000
1730836567651,-2.208100,0.473400,0.951000,0.030500,0.109500,9.703400,-12.750000,-45.750000,4051.500000
1730836567751,-2.236700,0.436700,0.979500,0.032900,0.103500,9.695600,-13.750000,-41.750000,4050.500000
1730836567850,-2.314200,0.530600,-1.020400,0.033500,0.100500,9.694400,-14.000000,-42.000000,4047.750000
1730836567950,-2.248900,0.461200,0.930600,0.039500,0.106500,9.692000,-16.500000,-44.500000,4046.750000
1730836568050,-2.175500,0.440800,0.967300,0.041900,0.105900,9.696800,-17.500000,-44.250000,4048.750000
1730836568150,-2.200000,0.493800,0.930600,0.029900,0.105300,9.701600,-11.750000,-43.250000,4053.750000
1730836568249,-2.122400,0.481600,0.938700,0.036500,0.107100,9.699200,-15.250000,-44.750000,4049.750000
1730836568349,-2.232600,0.514200,0.991800,0.043100,0.108900,9.689600,-18.000000,-45.500000,4045.750000
1730836568448,-2.114200,0.489700,0.975500,0.036500,0.102300,9.698000,-15.250000,-42.750000,4049.250000
1730836568547,-2.273400,0.518300,0.975500,0.035300,0.104100,9.689000,-13.750000,-45.750000,4049.250000
1730836568647,-2.208100,0.469300,0.934600,0.037700,0.111300,9.695600,-15.750000,-46.500000,4048.250000
1730836568748,-2.065300,0.436700,0.938700,0.038900,0.110100,9.689000,-16.250000,-46.000000,4045.500000
1730836568847,-2.179500,0.453000,0.975500,0.034700,0.105900,9.692600,-14.500000,-44.250000,4047.000000
1730836568947,-2.269300,0.448900,0.991800,0.032300,0.105900,9.702200,-13.000000,-46.500000,4051.000000
1730836569047,-2.171400,0.518300,0.942800,0.038900,0.110700,9.705800,-16.250000,-46.250000,4052.500000
1730836569147,-2.163200,0.477500,0.971400,0.040700,0.105300,9.700400,-17.000000,-44.000000,4050.250000
1730836569246,-2.248900,0.461200,0.979500,0.040700,0.104700,9.693200,-17.000000,-43.750000,4047.250000
1730836569346,-2.179500,0.440800,0.942800,0.035300,0.114300,9.695600,-14.750000,-47.750000,4048.250000
1730836569445,-2.224400,0.493800,0.955100,0.037100,0.108900,9.698600,-15.000000,-43.750000,4045.250000
1730836569545,-2.167300,0.489700,0.971400,0.038900,0.110100,9.698000,-16.250000,-46.000000,4049.250000
1730836569645,-2.151000,0.481600,0.934600,0.029300,0.112500,9.706400,-12.250000,-47.000000,4052.750000
1730836569745,-2.155100,0.448900,0.946900,0.034700,0.107700,9.704000,-14.500000,-45.000000,4051.750000
1730836569844,-2.146900,0.534600,0.922400,0.036500,0.102300,9.688400,-13.500000,-45.000000,4052.750000
1730836569944,-2.155100,0.465300,0.906100,0.047900,0.110700,9.692000,-20.000000,-46.250000,4046.750000
1730836570043,-2.138700,0.465300,0.975500,0.034700,0.108300,9.702200,-14.500000,-45.250000,4051.000000
1730836570143,-2.240800,0.493800,0.967300,0.037100,0.104700,9.698600,-15.500000,-43.750000,4049.500000
1730836570243,-2.224400,0.457100,-1.004000,0.035900,0.105300,9.696800,-10.500000,-44.500000,4045.500000
1730836570342,-2.102000,0.432600,0.922400,0.037100,0.117300,9.699200,-15.500000,-49.000000,4049.750000
1730836570443,-2.265300,0.461200,0.995900,0.035900,0.102300,9.699200,-15.000000,-42.750000,4049.750000
1730836570541,-2.208100,0.473400,0.995900,0.028700,0.113700,9.705800,-12.000000,-47.500000,4052.500000
1730836570642,-2.179500,0.489700,0.971400,0.035900,0.101700,9.701000,-15.250000,-42.750000,4050.500000
1730836570742,-2.175500,0.489700,-1.000000,0.038900,0.110700,9.698000,-16.250000,-46.250000,4049.250000
1730836570842,-2.293800,0.465300,0.967300,0.038300,0.105900,9.698600,-16.000000,-44.250000,4049.500000
1730836570941,-2.146900,0.493800,0.983600,0.035300,0.115500,9.698000,-14.750000,-48.250000,4049.250000
1730836571041,-2.212200,0.465300,0.951000,0.033500,0.111900,9.697400,-14.000000,-46.750000,4049.000000
1730836571141,-2.155100,0.453000,0.959100,0.042500,0.114900,9.692000,-11.250000,-45.500000,4046.500000
1730836571240,-2.130600,0.506100,0.922400,0.021500,0.105300,9.704600,-9.000000,-44.000000,4052.000000
1730836571339,-2.208100,0.506100,0.963200,0.041300,0.110100,9.686000,-17.250000,-46.000000,4044.250000
1730836571439,-2.273400,0.477500,-1.000000,0.032300,0.108300,9.714700,-13.500000,-45.250000,4056.250000
1730836571538,-2.224400,0.461200,-1.040800,0.036500,0.105900,9.688400,-20.500000,-43.750000,4048.000000
1730836571639,-2.261200,0.489700,0.951000,0.041900,0.102900,9.694400,-17.500000,-43.000000,4047.750000
1730836571738,-2.151000,0.412200,0.938700,0.024500,0.105300,9.692600,-10.250000,-44.000000,4047.000000
1730836571838,-2.106100,0.432600,0.914200,0.038900,0.099900,9.694400,-16.250000,-41.750000,4047.750000
1730836571938,-2.257100,0.461200,0.971400,0.036500,0.108300,9.692000,-15.250000,-44.250000,4046.000000
1730836572038,-2.216300,0.497900,-1.057100,0.041900,0.107100,9.688400,-17.500000,-44.750000,4045.250000
1730836572137,-2.061200,0.493800,0.934600,0.035300,0.098700,9.690800,-14.750000,-41.250000,4046.250000
1730836572237,-2.195900,0.481600,0.967300,0.035300,0.107100,9.695600,-14.750000,-44.750000,4048.250000
1730836572336,-2.159100,0.489700,0.946900,0.036500,0.113100,9.693800,-13.750000,-46.000000,4046.500000
1730836572437,-2.281600,0.502000,-1.016300,0.037700,0.104700,9.692000,-15.750000,-43.750000,4046.750000
1730836572536,-2.228500,0.497900,0.987700,0.034700,0.110100,9.695600,-14.500000,-46.000000,4048.250000
1730836572636,-2.253000,0.493800,0.983600,0.034100,0.107700,9.702200,-14.250000,-45.000000,4051.000000
1730836572736,-2.204000,0.485700,0.987700,0.035900,0.111900,9.699800,-15.000000,-46.750000,4050.000000
1730836572835,-2.200000,0.530600,0.987700,0.037100,0.110100,9.698600,-15.500000,-44.250000,4049.750000
1730836572935,-2.232600,0.497900,-1.000000,0.035300,0.111300,9.701000,-14.750000,-46.500000,4050.500000
1730836573034,-2.240800,0.506100,0.946900,0.040100,0.105900,9.694400,-16.750000,-44.250000,4047.750000
1730836573135,-2.138700,0.461200,0.946900,0.035900,0.117300,9.698600,-15.000000,-49.000000,4049.500000
1730836573234,-2.236700,0.510200,0.995900,0.037100,0.116100,9.690200,-11.500000,-46.000000,4046.750000
1730836573334,-2.322400,0.514200,-1.024400,0.029300,0.111900,9.703400,-12.250000,-46.750000,4051.500000
1730836573434,-2.102000,0.416300,0.967300,0.031100,0.102900,9.699200,-13.000000,-43.000000,4049.750000
1730836573533,-2.273400,0.534600,-1.048900,0.033500,0.107700,9.690200,-14.000000,-45.000000,4046.000000
1730836573633,-2.163200,0.526500,0.975500,0.029900,0.102900,9.691400,-16.250000,-46.000000,4052.250000
1730836573733,-2.216300,0.465300,0.914200,0.036500,0.107700,9.696800,-15.250000,-45.000000,4048.750000
1730836573832,-2.167300,0.481600,0.963200,0.031100,0.107100,9.695000,-13.000000,-44.750000,4048.000000
1730836573932,-2.244800,0.477500,-1.036700,0.043100,0.105900,9.695000,-18.000000,-44.250000,4048.000000
1730836574032,-2.273400,0.477500,-1.008100,0.025100,0.102900,9.696200,-13.500000,-43.000000,4048.500000
1730836574132,-2.265300,0.514200,0.959100,0.037700,0.099900,9.691400,-15.750000,-41.750000,4046.500000
1730836574232,-2.159100,0.481600,0.946900,0.023900,0.108300,9.697400,-10.000000,-45.250000,4049.000000
1730836574331,-2.110200,0.465300,0.930600,0.033500,0.108900,9.689600,-14.000000,-45.500000,4045.750000
1730836574431,-2.175500,0.506100,-1.016300,0.038300,0.106500,9.700400,-16.000000,-44.500000,4050.250000
1730836574531,-2.195900,0.448900,0.942800,0.037700,0.106500,9.698600,-13.750000,-43.750000,4047.000000
1730836574630,-2.146900,0.473400,0.922400,0.038900,0.107700,9.692600,-16.250000,-45.000000,4047.000000
1730836574730,-2.191800,0.530600,0.942800,0.035900,0.111300,9.692600,-15.000000,-46.500000,4047.000000
1730836574830,-2.240800,0.510200,0.979500,0.040100,0.112500,9.691400,-16.750000,-47.000000,4046.500000
1730836574929,-2.102000,0.477500,0.951000,0.029300,0.110700,9.696200,-16.250000,-46.000000,4047.250000
1730836575028,-2.297900,0.493800,-1.004000,0.038300,0.109500,9.699800,-16.000000,-45.750000,4050.000000
1730836575128,-2.269300,0.489700,0.987700,0.034100,0.113100,9.700400,-14.250000,-47.250000,4050.250000
1730836575229,-2.253000,0.469300,0.983600,0.040100,0.110700,9.684800,-16.750000,-46.250000,4043.750000
1730836575328,-2.130600,0.497900,0.971400,0.038300,0.098700,9.693200,-16.750000,-42.250000,4049.000000
1730836575428,-2.134600,0.444800,0.967300,0.035900,0.104700,9.693200,-15.000000,-43.750000,4047.250000
1730836575527,-2.155100,0.493800,0.918300,0.031100,0.114900,9.706400,-13.000000,-48.000000,4052.750000
1730836575627,-2.293800,0.485700,-1.000000,0.032900,0.111900,9.691400,-13.750000,-46.750000,4046.500000
1730836575727,-2.134600,0.428500,0.922400,0.035300,0.104100,9.697400,-14.750000,-43.500000,4049.000000
1730836575827,-2.261200,0.497900,0.967300,0.047300,0.105900,9.690200,-19.750000,-44.250000,4053.250000
1730836575926,-2.081600,0.395900,0.951000,0.039500,0.110700,9.694400,-16.500000,-46.250000,4047.750000
1730836576026,-2.228500,0.493800,0.959100,0.037700,0.107700,9.698600,-15.750000,-45.000000,4049.500000
1730836576126,-2.122400,0.453000,0.942800,0.025700,0.098700,9.686000,-10.750000,-41.250000,4044.250000
1730836576225,-2.138700,0.444800,0.930600,0.038900,0.122700,9.699800,-15.500000,-46.250000,4053.250000
1730836576325,-2.212200,0.477500,0.967300,0.034700,0.100500,9.699200,-14.500000,-42.000000,4049.750000
1730836576425,-2.240800,0.493800,0.979500,0.033500,0.098100,9.690200,-14.000000,-41.000000,4046.000000
1730836576525,-2.330600,0.510200,-1.016300,0.033500,0.110700,9.694400,-14.000000,-46.250000,4047.750000
1730836576624,-2.183600,0.510200,0.959100,0.034100,0.116700,9.702800,-15.500000,-44.750000,4047.500000
1730836576724,-2.244800,0.440800,0.967300,0.029300,0.105900,9.695600,-12.250000,-44.250000,4048.250000
1730836576824,-2.167300,0.510200,0.975500,0.034100,0.110700,9.700400,-14.250000,-46.250000,4050.250000
1730836576924,-2.232600,0.489700,0.995900,0.044900,0.108900,9.687800,-18.750000,-45.500000,4045.000000
1730836577022,-2.285700,0.506100,0.979500,0.045500,0.113700,9.708800,-13.500000,-43.000000,4053.750000
1730836577123,-2.265300,0.453000,0.987700,0.040700,0.105900,9.692000,-17.000000,-44.250000,4046.750000
1730836577223,-2.138700,0.424400,0.955100,0.034100,0.110700,9.699800,-14.250000,-46.250000,4050.000000
1730836577322,-2.175500,0.453000,0.942800,0.028700,0.105300,9.698600,-12.000000,-44.000000,4049.500000
1730836577422,-2.195900,0.493800,0.979500,0.036500,0.110700,9.702200,-15.250000,-46.250000,4051.000000
1730836577522,-2.208100,0.457100,0.983600,0.038300,0.108900,9.696800,-16.000000,-45.500000,4044.750000
1730836577620,-2.216300,0.481600,0.971400,0.027500,0.112500,9.693800,-11.500000,-47.000000,4047.500000
1730836577721,-2.110200,0.444800,0.983600,0.035900,0.107100,9.691400,-15.000000,-44.750000,4046.500000
1730836577821,-2.175500,0.453000,0.959100,0.037700,0.114900,9.689600,-15.750000,-48.000000,4045.750000
1730836577920,-2.187700,0.502000,0.967300,0.034100,0.102300,9.696800,-13.750000,-46.500000,4051.250000
1730836578020,-2.293800,0.469300,0.979500,0.032300,0.107700,9.698600,-13.500000,-45.000000,4049.500000
1730836578119,-2.187700,0.485700,0.955100,0.036500,0.102300,9.691400,-15.250000,-42.750000,4046.500000
1730836578218,-2.187700,0.448900,-1.020400,0.043700,0.108300,9.689000,-18.250000,-45.250000,4045.500000
1730836578319,-2.200000,0.457100,0.922400,0.037700,0.106500,9.691400,-14.500000,-43.750000,4052.250000
1730836578419,-2.175500,0.465300,0.946900,0.035300,0.115500,9.694400,-14.750000,-48.250000,4047.750000
1730836578518,-2.167300,0.489700,0.942800,0.029300,0.110700,9.704000,-12.250000,-46.250000,4051.750000
1730836578618,-2.138700,0.448900,0.938700,0.040700,0.106500,9.688400,-17.000000,-44.500000,4045.250000
1730836578718,-2.269300,0.518300,-1.024400,0.039500,0.107100,9.689000,-15.500000,-43.500000,4045.750000
1730836578818,-2.216300,0.538700,0.995900,0.036500,0.103500,9.693200,-15.250000,-43.250000,4047.250000
1730836578917,-2.151000,0.453000,0.963200,0.035900,0.105300,9.692600,-15.000000,-44.000000,4047.000000
1730836579016,-2.269300,0.506100,0.979500,0.027500,0.100500,9.718300,-11.500000,-42.000000,4057.750000
1730836579117,-2.216300,0.522400,-1.000000,0.049600,0.123300,9.687800,-20.750000,-51.500000,4045.000000
1730836579216,-2.257100,0.506100,0.959100,0.038900,0.106500,9.714100,-16.250000,-44.500000,4045.250000
1730836579315,-2.097900,0.481600,0.926500,0.040100,0.088600,9.702800,-16.750000,-37.000000,4051.250000
1730836579416,-2.167300,0.493800,0.971400,0.031100,0.105300,9.701000,-13.000000,-44.000000,4050.500000
1730836579515,-2.191800,0.522400,0.995900,0.031700,0.114900,9.698600,-13.250000,-48.000000,4049.500000
1730836579615,-2.097900,0.477500,0.951000,0.030500,0.104100,9.709400,-14.250000,-44.000000,4049.000000
1730836579715,-2.232600,0.506100,0.946900,0.034700,0.105900,9.686600,-14.500000,-44.250000,4044.500000
1730836579815,-2.236700,0.469300,0.963200,0.034100,0.106500,9.710000,-14.250000,-44.500000,4054.250000
1730836579914,-2.216300,0.485700,0.959100,0.036500,0.106500,9.701600,-15.250000,-44.500000,4050.750000
1730836580013,-2.175500,0.493800,0.991800,0.037100,0.111900,9.697400,-15.000000,-45.500000,4048.500000
1730836580113,-2.236700,0.534600,0.991800,0.041900,0.107100,9.696800,-17.500000,-44.750000,4048.750000
1730836580213,-2.183600,0.485700,0.959100,0.034100,0.110700,9.708800,-14.250000,-46.250000,4053.750000
1730836580312,-2.228500,0.457100,0.991800,0.034700,0.110700,9.691400,-14.500000,-46.250000,4046.500000
1730836580413,-2.146900,0.493800,0.897900,0.039500,0.101700,9.691400,-15.000000,-44.000000,4053.750000
1730836580511,-2.118300,0.440800,0.955100,0.041300,0.106500,9.690800,-17.250000,-44.500000,4046.250000
1730836580612,-2.220400,0.538700,-1.008100,0.031700,0.102300,9.699800,-13.250000,-42.750000,4050.000000
1730836580711,-2.248900,0.534600,0.951000,0.041300,0.104100,9.690200,-17.250000,-43.500000,4046.000000
1730836580810,-2.236700,0.453000,0.946900,0.029900,0.113700,9.699200,-12.500000,-48.250000,4049.750000
1730836580911,-2.183600,0.518300,0.963200,0.034700,0.107100,9.703400,-14.500000,-44.750000,4051.500000
1730836581011,-2.253000,0.502000,-1.004000,0.040700,0.107700,9.694400,-17.000000,-45.000000,4047.750000
1730836581110,-2.175500,0.481600,0.979500,0.032300,0.107700,9.687200,-13.500000,-45.000000,4044.750000
1730836581210,-2.224400,0.502000,0.983600,0.038300,0.107100,9.699200,-16.000000,-44.750000,4049.750000
1730836581310,-2.240800,0.465300,0.934600,0.036500,0.104100,9.693800,-15.250000,-43.250000,4046.500000
1730836581409,-2.216300,0.526500,0.963200,0.040100,0.102300,9.693200,-16.750000,-42.750000,4047.250000
1730836581509,-2.285700,0.493800,0.975500,0.040100,0.107100,9.692600,-16.750000,-44.750000,4047.000000
1730836581608,-2.208100,0.485700,-1.008100,0.029900,0.112500,9.694400,-12.500000,-47.000000,4047.750000
1730836581707,-2.191800,0.416300,0.951000,0.037700,0.108900,9.693200,-12.000000,-43.500000,4052.000000
1730836581807,-2.195900,0.457100,0.979500,0.039500,0.111300,9.687800,-16.500000,-46.500000,4045.000000
1730836581907,-2.126500,0.497900,0.930600,0.031700,0.105300,9.684800,-13.250000,-44.000000,4043.750000
1730836582007,-2.200000,0.457100,-1.004000,0.035900,0.104100,9.687200,-15.000000,-43.500000,4044.750000
1730836582106,-2.191800,0.453000,0.979500,0.038900,0.110100,9.694400,-15.250000,-47.250000,4047.500000
1730836582206,-2.244800,0.465300,-1.016300,0.034700,0.110100,9.688400,-14.500000,-46.000000,4045.250000
1730836582307,-2.220400,0.526500,-1.024400,0.028700,0.106500,9.693200,-12.000000,-44.500000,4047.250000
1730836582406,-2.220400,0.546900,-1.016300,0.038900,0.112500,9.699200,-16.250000,-47.000000,4049.750000
1730836582505,-2.248900,0.493800,-1.012200,0.031100,0.114900,9.699200,-13.250000,-47.500000,4049.250000
1730836582606,-2.212200,0.485700,0.963200,0.035300,0.104700,9.685400,-14.750000,-43.750000,4044.000000
1730836582705,-2.289700,0.489700,-1.020400,0.041300,0.106500,9.690800,-17.250000,-44.500000,4046.250000
1730836582805,-2.269300,0.461200,0.959100,0.040700,0.105300,9.689000,-17.000000,-44.000000,4045.500000
1730836582905,-2.122400,0.469300,0.959100,0.028700,0.104100,9.693800,-12.000000,-43.500000,4047.500000
1730836583004,-2.175500,0.489700,0.971400,0.031100,0.107700,9.690200,-13.000000,-45.000000,4041.000000
1730836583104,-2.257100,0.567300,-1.000000,0.040100,0.107100,9.689000,-16.750000,-44.750000,4045.500000
1730836583204,-2.122400,0.420400,0.934600,0.033500,0.113700,9.693200,-14.000000,-47.500000,4047.250000
1730836583304,-2.191800,0.477500,0.987700,0.034700,0.104100,9.694400,-14.500000,-43.500000,4047.750000
1730836583403,-2.244800,0.473400,0.979500,0.036500,0.105900,9.692000,-15.000000,-45.500000,4039.000000
1730836583503,-2.191800,0.510200,0.983600,0.033500,0.102300,9.703400,-14.000000,-42.750000,4051.500000
1730836583603,-2.273400,0.461200,0.991800,0.035900,0.102300,9.704000,-15.000000,-42.750000,4051.750000
1730836583701,-2.302000,0.559100,0.995900,0.041300,0.110700,9.692600,-17.250000,-46.250000,4047.000000
1730836583802,-2.167300,0.481600,0.926500,0.028100,0.108900,9.683000,-14.500000,-46.750000,4044.250000
1730836583902,-2.212200,0.465300,0.979500,0.034100,0.098100,9.683600,-14.250000,-41.000000,4043.250000
1730836584001,-2.293800,0.502000,0.938700,0.042500,0.100500,9.702200,-17.750000,-42.000000,4051.000000
1730836584101,-2.175500,0.481600,0.946900,0.035900,0.111900,9.691400,-15.000000,-46.750000,4046.500000
1730836584201,-2.163200,0.485700,0.995900,0.037700,0.107100,9.683000,-10.750000,-45.750000,4048.500000
1730836584300,-2.179500,0.530600,0.959100,0.034700,0.104700,9.697400,-14.500000,-43.750000,4049.000000
1730836584399,-2.187700,0.489700,0.991800,0.032300,0.112500,9.698600,-13.500000,-47.000000,4049.500000
