timestamp,Gyro_x,Gyro_y,Gyro_z,Accel_x,Accel_y,Accel_z,Mag_x,Mag_y,Mag_z
1730861106889,-2.375500,0.497900,0.902000,0.290900,0.096300,9.682400,-126.750000,-40.250000,4042.750000
1730861106889,-2.351000,0.506100,0.906100,0.289700,0.117900,9.675800,-121.000000,-49.250000,4040.000000
1730861106890,-2.302000,0.489700,0.869300,0.291500,0.096300,9.676400,-121.750000,-40.250000,4040.250000
1730861106890,-2.269300,0.502000,0.857100,0.290300,0.124500,9.681800,-121.250000,-52.000000,4042.500000
1730861106890,-2.326500,0.510200,0.844800,0.286800,0.100500,9.674000,-119.750000,-42.000000,4039.250000
1730861106890,-2.375500,0.534600,0.885700,0.296900,0.117300,9.684800,-119.750000,-51.250000,4043.000000
1730861106890,-2.248900,0.510200,0.873400,0.280800,0.111900,9.676400,-117.250000,-46.750000,4040.250000
1730861106890,-2.302000,0.469300,0.857100,0.307700,0.110700,9.664500,-128.500000,-46.250000,4035.250000
1730861106891,-2.334600,0.444800,0.840800,0.282000,0.124500,9.678200,-117.750000,-52.000000,4041.000000
1730861106891,-2.383600,0.514200,0.844800,0.288500,0.119700,9.678800,-123.500000,-49.750000,4036.750000
1730861106891,-2.240800,0.465300,0.812200,0.276000,0.121500,9.684800,-115.250000,-50.750000,4043.750000
1730861106891,-2.395900,0.481600,0.820400,0.283800,0.111300,9.679400,-118.500000,-46.500000,4041.500000
1730861106891,-2.453000,0.538700,0.906100,0.285000,0.110100,9.674600,-119.000000,-46.000000,4039.500000
1730861106891,-2.338700,0.489700,0.922400,0.286200,0.122100,9.680000,-122.500000,-51.250000,4043.500000
1730861106891,-2.322400,0.489700,0.881600,0.285000,0.123300,9.680600,-119.000000,-51.500000,4042.000000
1730861106892,-2.383600,0.477500,0.881600,0.284400,0.117300,9.680000,-118.750000,-49.000000,4041.750000
1730861106892,-2.448900,0.506100,0.910200,0.285600,0.113100,9.676400,-119.250000,-47.250000,4040.250000
1730861106892,-2.330600,0.518300,0.897900,0.281400,0.113700,9.672800,-118.250000,-52.750000,4039.250000
1730861106892,-2.395900,0.502000,0.893800,0.281400,0.123900,9.686600,-117.500000,-51.750000,4044.500000
1730861106892,-2.310200,0.510200,0.881600,0.286200,0.111300,9.678200,-119.500000,-46.500000,4041.000000
1730861106892,-2.302000,0.518300,0.853000,0.286200,0.114300,9.677600,-119.500000,-47.750000,4040.750000
1730861106893,-2.375500,0.518300,0.889700,0.290900,0.116700,9.677600,-121.500000,-48.750000,4040.750000
1730861106893,-2.261200,0.526500,0.844800,0.287400,0.117900,9.681800,-120.000000,-49.250000,4048.000000
1730861106893,-2.314200,0.530600,0.844800,0.280200,0.111900,9.681200,-117.000000,-46.750000,4042.250000
1730861106893,-2.432600,0.477500,0.885700,0.290900,0.109500,9.669800,-121.500000,-45.750000,4037.500000
1730861106893,-2.485700,0.555100,0.865300,0.284400,0.120300,9.678200,-118.750000,-50.250000,4041.000000
1730861106893,-2.334600,0.514200,0.918300,0.290300,0.118500,9.677600,-119.750000,-50.000000,4041.500000
1730861106893,-2.342800,0.481600,0.865300,0.277800,0.111300,9.670400,-116.000000,-46.500000,4037.750000
1730861106894,-2.383600,0.510200,0.885700,0.277800,0.119100,9.677600,-116.000000,-49.750000,4040.750000
1730861106894,-2.346900,0.518300,0.906100,0.288000,0.117300,9.678200,-120.250000,-49.000000,4041.000000
1730861106894,-2.322400,0.579500,0.832600,0.291500,0.115500,9.676400,-124.500000,-50.250000,4042.250000
1730861106894,-2.318300,0.518300,0.897900,0.278400,0.117300,9.681200,-116.250000,-49.000000,4042.250000
1730861106894,-2.306100,0.489700,0.881600,0.271200,0.105900,9.678800,-113.250000,-44.250000,4041.250000
1730861106894,-2.436700,0.551000,0.922400,0.298700,0.120900,9.680000,-124.750000,-50.500000,4041.750000
1730861106895,-2.351000,0.497900,0.861200,0.285000,0.119700,9.675200,-117.750000,-53.250000,4044.000000
1730861106895,-2.338700,0.518300,0.959100,0.285000,0.110100,9.679400,-119.000000,-46.000000,4041.500000
1730861106895,-2.395900,0.518300,0.910200,0.290300,0.113100,9.680000,-121.250000,-47.250000,4041.750000
1730861106895,-2.424400,0.448900,0.914200,0.286800,0.123900,9.675800,-119.750000,-51.750000,4040.000000
1730861106895,-2.244800,0.440800,0.877500,0.284400,0.108900,9.683000,-118.750000,-45.500000,4043.000000
1730861106895,-2.302000,0.477500,0.836700,0.284400,0.116700,9.678800,-118.750000,-48.750000,4042.750000
1730861106895,-2.322400,0.477500,0.865300,0.290300,0.121500,9.684800,-121.250000,-50.750000,4043.750000
1730861106896,-2.363200,0.481600,0.910200,0.279600,0.119700,9.671600,-116.750000,-50.000000,4038.250000
1730861106896,-2.302000,0.485700,0.828500,0.286200,0.121500,9.677000,-119.500000,-50.750000,4040.500000
1730861106896,-2.375500,0.530600,0.893800,0.287400,0.116100,9.671600,-116.750000,-47.250000,4041.750000
1730861106896,-2.326500,0.481600,0.853000,0.282000,0.120300,9.672800,-117.750000,-50.250000,4038.750000
1730861106896,-2.314200,0.461200,0.861200,0.285600,0.119700,9.674000,-119.250000,-50.000000,4039.250000
1730861106896,-2.342800,0.457100,0.902000,0.285600,0.126300,9.681800,-119.250000,-52.750000,4042.500000
1730861106896,-2.314200,0.518300,0.869300,0.272400,0.121500,9.678200,-117.000000,-51.000000,4041.750000
1730861106897,-2.371400,0.502000,0.869300,0.285000,0.120300,9.682400,-119.000000,-50.250000,4042.750000
1730861106897,-2.318300,0.465300,0.897900,0.292700,0.109500,9.678800,-122.250000,-45.750000,4041.250000
1730861106897,-2.302000,0.440800,0.836700,0.287400,0.110100,9.680000,-120.000000,-46.000000,4041.750000
1730861106897,-2.306100,0.461200,0.848900,0.288500,0.122700,9.679400,-121.750000,-49.000000,4040.500000
1730861106897,-2.359100,0.497900,0.893800,0.286200,0.126300,9.680600,-119.500000,-52.750000,4042.000000
1730861106897,-2.285700,0.465300,0.869300,0.276000,0.120300,9.672800,-115.250000,-50.250000,4038.750000
1730861106898,-2.453000,0.567300,0.938700,0.279000,0.114900,9.668000,-116.500000,-48.000000,4036.750000
1730861106898,-2.322400,0.497900,0.889700,0.290300,0.106500,9.668600,-119.250000,-44.500000,4037.000000
1730861106898,-2.306100,0.514200,0.885700,0.297500,0.115500,9.674600,-124.250000,-48.250000,4039.500000
1730861106898,-2.379500,0.489700,0.889700,0.282000,0.128100,9.674000,-117.750000,-53.500000,4039.250000
1730861106898,-2.342800,0.493800,0.910200,0.298100,0.104100,9.677600,-124.500000,-43.500000,4040.750000
1730861106898,-2.318300,0.502000,0.902000,0.285000,0.117300,9.679400,-119.000000,-49.000000,4041.500000
1730861106898,-2.400000,0.485700,0.881600,0.279000,0.116100,9.675800,-116.500000,-47.000000,4040.750000
1730861106898,-2.367300,0.591800,0.877500,0.285600,0.113700,9.680000,-119.250000,-47.500000,4041.750000
1730861106899,-2.359100,0.559100,0.897900,0.277200,0.125700,9.657900,-115.750000,-52.500000,4032.500000
1730861106899,-2.318300,0.542800,0.857100,0.307100,0.105900,9.674000,-128.250000,-44.250000,4039.250000
1730861106899,-2.334600,0.448900,0.906100,0.288500,0.111300,9.668000,-121.000000,-48.250000,4042.000000
1730861106899,-2.342800,0.506100,0.922400,0.287400,0.110700,9.671600,-120.000000,-46.250000,4038.250000
1730861106899,-2.404000,0.551000,0.869300,0.282600,0.110700,9.672800,-118.000000,-46.250000,4038.750000
1730861106899,-2.367300,0.571400,0.922400,0.288000,0.119100,9.675800,-120.250000,-49.750000,4040.000000
1730861106900,-2.330600,0.465300,0.873400,0.296900,0.112500,9.676400,-121.000000,-47.250000,4039.250000
1730861106900,-2.285700,0.432600,0.877500,0.294500,0.113100,9.680600,-123.000000,-47.250000,4042.000000
1730861106900,-2.351000,0.518300,0.902000,0.294500,0.114300,9.677000,-123.000000,-47.750000,4040.500000
1730861106900,-2.351000,0.514200,0.922400,0.290300,0.109500,9.674000,-121.250000,-45.750000,4039.250000
1730861106900,-2.289700,0.453000,0.922400,0.290900,0.108300,9.671600,-118.250000,-48.500000,4039.750000
1730861106900,-2.318300,0.518300,0.869300,0.294500,0.120900,9.678800,-123.000000,-50.500000,4041.250000
1730861106900,-2.363200,0.485700,0.869300,0.278400,0.114300,9.678800,-116.250000,-47.750000,4041.250000
1730861106901,-2.387700,0.473400,0.893800,0.285600,0.113100,9.677600,-119.250000,-47.250000,4040.750000
1730861106901,-2.261200,0.546900,0.902000,0.291500,0.108900,9.677000,-118.750000,-45.500000,4040.500000
1730861106901,-2.244800,0.473400,0.853000,0.291500,0.114900,9.675800,-121.750000,-48.000000,4040.000000
1730861106901,-2.395900,0.485700,0.877500,0.294500,0.117900,9.671600,-123.000000,-49.250000,4038.250000
1730861106901,-2.355100,0.510200,0.885700,0.292700,0.115500,9.669800,-122.250000,-48.250000,4037.500000
1730861106901,-2.334600,0.522400,0.836700,0.286800,0.119700,9.680600,-119.750000,-50.000000,4042.000000
1730861106902,-2.330600,0.457100,0.832600,0.292100,0.114900,9.667400,-122.250000,-45.750000,4040.000000
1730861106902,-2.265300,0.473400,0.865300,0.292700,0.114300,9.678200,-122.250000,-47.750000,4041.000000
1730861106902,-2.293800,0.489700,0.844800,0.291500,0.119100,9.678800,-121.750000,-49.750000,4041.250000
1730861106902,-2.293800,0.538700,0.906100,0.302900,0.112500,9.666200,-126.500000,-47.000000,4036.000000
1730861106902,-2.297900,0.473400,0.893800,0.286200,0.114900,9.680600,-117.250000,-48.000000,4037.500000
1730861106902,-2.289700,0.522400,0.820400,0.293300,0.116100,9.672200,-122.500000,-48.500000,4038.500000
1730861106902,-2.293800,0.506100,0.889700,0.289100,0.113100,9.678200,-120.750000,-47.250000,4041.000000
1730861106903,-2.314200,0.506100,0.840800,0.271200,0.123900,9.690200,-113.250000,-51.750000,4046.000000
1730861106903,-2.379500,0.522400,0.910200,0.282600,0.119700,9.677000,-107.750000,-46.000000,4053.000000
1730861106903,-2.379500,0.457100,0.848900,0.237100,0.130500,9.668600,-99.000000,-54.500000,4037.000000
1730861106903,-2.257100,0.481600,0.885700,0.282000,0.116700,9.675200,-117.750000,-48.750000,4039.750000
1730861106903,-2.318300,0.461200,0.836700,0.296900,0.104700,9.663300,-124.000000,-43.750000,4034.750000
1730861106903,-2.346900,0.526500,0.853000,0.290300,0.122100,9.660300,-124.000000,-50.000000,4041.000000
1730861106903,-2.408100,0.514200,0.934600,0.290300,0.108900,9.684200,-121.250000,-45.500000,4043.500000
1730861106904,-2.342800,0.534600,0.857100,0.279600,0.118500,9.668600,-116.750000,-49.500000,4037.000000
1730861106904,-2.359100,0.530600,0.869300,0.304100,0.122700,9.658500,-127.000000,-51.250000,4032.750000
1730861106904,-2.428500,0.551000,0.893800,0.288500,0.110100,9.670400,-122.500000,-46.000000,4037.750000
1730861106904,-2.412200,0.457100,0.877500,0.289100,0.106500,9.664500,-120.750000,-44.500000,4035.250000
1730861106904,-2.363200,0.514200,0.881600,0.287400,0.111900,9.688400,-120.000000,-46.750000,4045.250000
1730861106904,-2.416300,0.526500,0.926500,0.302900,0.117300,9.713000,-126.500000,-49.000000,4055.500000
1730861106905,-2.387700,0.518300,0.910200,0.294500,0.086200,9.660300,-123.000000,-36.000000,4033.500000
1730861106905,-2.371400,0.514200,0.910200,0.298700,0.123300,9.660900,-120.500000,-47.750000,4044.500000
1730861106905,-2.477500,0.518300,0.897900,0.301100,0.089800,9.639900,-125.750000,-37.500000,4025.000000
1730861106905,-2.453000,0.465300,0.893800,0.334100,0.061600,9.618900,-139.500000,-25.750000,4016.250000
1730861106905,-2.375500,0.481600,0.902000,0.314300,0.107700,9.678800,-131.250000,-45.000000,4041.250000
1730861106905,-2.232600,0.489700,0.869300,0.323300,0.092800,9.656700,-117.750000,-52.000000,4058.000000
1730861106905,-2.412200,0.469300,0.873400,0.286200,0.110700,9.678200,-119.500000,-46.250000,4041.000000
1730861106906,-2.371400,0.542800,0.857100,0.286200,0.110700,9.671000,-119.500000,-46.250000,4038.000000
1730861106906,-2.440800,0.506100,0.906100,0.296900,0.114300,9.675800,-124.000000,-47.750000,4040.000000
1730861106906,-2.334600,0.453000,0.885700,0.248400,0.137700,9.758500,-173.250000,-18.750000,3958.500000
1730861106906,-2.395900,0.497900,0.910200,0.315500,0.111300,9.658500,-131.750000,-46.500000,4032.750000
1730861106906,-2.387700,0.514200,0.881600,0.294500,0.098700,9.672800,-123.000000,-41.250000,4038.750000
1730861106906,-2.493800,0.559100,0.906100,0.302300,0.116100,9.681200,-126.250000,-48.500000,4042.250000
1730861106906,-2.318300,0.465300,0.885700,0.243000,0.108900,9.720100,-125.500000,-50.000000,4024.000000
1730861106907,-2.359100,0.502000,0.897900,0.277200,0.123300,9.668000,-115.750000,-51.500000,4036.750000
1730861106907,-2.379500,0.534600,0.930600,0.276600,0.114900,9.679400,-115.500000,-48.000000,4041.500000
1730861106907,-2.412200,0.506100,0.877500,0.285600,0.113700,9.649500,-119.250000,-47.500000,4029.000000
1730861106907,-2.306100,0.538700,0.885700,0.306500,0.122700,9.702200,-106.750000,-59.750000,4051.000000
1730861106907,-2.428500,0.481600,0.938700,0.277800,0.094000,9.679400,-116.000000,-39.250000,4041.500000
1730861106907,-2.342800,0.489700,0.897900,0.271800,0.138900,9.711800,-113.500000,-58.000000,4055.000000
1730861106908,-2.465300,0.514200,0.857100,0.346000,0.080200,9.569300,-144.500000,-33.500000,3995.500000
1730861106908,-2.379500,0.473400,0.865300,0.252600,0.119100,9.724900,-105.500000,-49.750000,4060.500000
1730861106908,-2.391800,0.461200,0.881600,0.284400,0.123900,9.680000,-118.750000,-44.000000,4034.250000
1730861106908,-2.265300,0.510200,0.853000,0.240600,0.112500,9.713000,-100.500000,-47.000000,4055.500000
1730861106908,-2.363200,0.473400,0.873400,0.285600,0.128100,9.689600,-119.250000,-53.500000,4045.750000
1730861106908,-2.424400,0.489700,0.897900,0.286200,0.135300,9.717100,-119.500000,-56.500000,4057.250000
1730861106908,-2.342800,0.497900,0.902000,0.293300,0.105300,9.664500,-125.500000,-46.750000,4039.000000
1730861106909,-2.318300,0.489700,0.857100,0.287400,0.109500,9.678800,-120.000000,-45.750000,4041.250000
1730861106909,-2.432600,0.506100,0.865300,0.305300,0.108900,9.668000,-127.500000,-45.500000,4036.750000
1730861106909,-2.322400,0.534600,0.873400,0.292700,0.114300,9.678800,-122.250000,-47.750000,4041.250000
1730861106909,-2.351000,0.526500,0.938700,0.285000,0.113700,9.677000,-125.000000,-49.250000,4041.750000
1730861106909,-2.400000,0.469300,0.869300,0.289700,0.123900,9.674600,-121.000000,-51.750000,4039.500000
1730861106909,-2.363200,0.514200,0.857100,0.302300,0.114300,9.675800,-126.250000,-47.750000,4040.000000
1730861106910,-2.367300,0.538700,0.861200,0.286800,0.110100,9.675200,-119.750000,-46.000000,4039.750000
1730861106910,-2.371400,0.530600,0.897900,0.295700,0.110100,9.678800,-119.500000,-47.500000,4040.750000
1730861106910,-2.408100,0.469300,0.873400,0.303500,0.105300,9.668600,-126.750000,-44.000000,4037.000000
1730861106910,-2.334600,0.457100,0.865300,0.294500,0.119700,9.681800,-123.000000,-50.000000,4042.500000
1730861106910,-2.330600,0.481600,0.881600,0.284400,0.105900,9.676400,-118.750000,-44.250000,4040.250000
1730861106910,-2.289700,0.481600,0.881600,0.290300,0.118500,9.675800,-116.250000,-49.500000,4040.000000
1730861106911,-2.334600,0.510200,0.853000,0.296900,0.124500,9.677600,-124.000000,-52.000000,4040.750000
1730861106911,-2.371400,0.448900,0.914200,0.287400,0.112500,9.677000,-120.000000,-47.000000,4040.500000
1730861106911,-2.285700,0.469300,0.857100,0.282000,0.123300,9.706400,-117.750000,-51.500000,4052.750000
1730861106911,-2.240800,0.473400,0.869300,0.273600,0.124500,9.682400,-114.250000,-52.000000,4042.750000
1730861106911,-2.395900,0.477500,0.869300,0.274800,0.107100,9.680600,-119.250000,-46.750000,4043.000000
1730861106911,-2.346900,0.469300,0.873400,0.208300,0.161600,9.915900,-87.000000,-67.500000,4140.250000
1730861106911,-2.379500,0.506100,0.869300,0.311300,0.123300,9.630300,-130.000000,-51.500000,4021.000000
1730861106912,-2.440800,0.534600,0.885700,0.292700,0.104100,9.635700,-122.250000,-43.500000,4023.250000
1730861106912,-2.420400,0.530600,0.938700,0.315500,0.109500,9.613600,-132.250000,-44.500000,4051.500000
1730861106912,-2.453000,0.518300,0.897900,0.253800,0.130500,9.662700,-106.000000,-54.500000,4034.500000
1730861106912,-2.457100,0.518300,0.910200,0.279600,0.111300,9.638100,-116.750000,-46.500000,4024.250000
1730861106912,-2.412200,0.546900,0.906100,0.302300,0.094000,9.532100,-126.250000,-39.250000,3980.000000
1730861106912,-2.318300,0.530600,0.877500,0.288500,0.129300,9.708800,-115.000000,-43.750000,4035.750000
1730861106912,-2.355100,0.530600,0.902000,0.273600,0.107700,9.697400,-114.250000,-45.000000,4049.000000
1730861106913,-2.342800,0.591800,0.897900,0.276600,0.105900,9.675800,-115.500000,-44.250000,4040.000000
1730861106913,-2.297900,0.510200,0.857100,0.303500,0.110100,9.654900,-126.750000,-46.000000,4031.250000
1730861106913,-2.326500,0.469300,0.877500,0.296900,0.120300,9.677000,-124.250000,-52.750000,4041.000000
1730861106913,-2.273400,0.485700,0.865300,0.293300,0.118500,9.675800,-122.500000,-49.500000,4040.000000
1730861106913,-2.326500,0.448900,0.844800,0.292700,0.102300,9.681800,-122.250000,-42.750000,4042.500000
1730861106914,-2.404000,0.567300,0.942800,0.301700,0.112500,9.667400,-126.000000,-47.000000,4036.500000
1730861106914,-2.395900,0.473400,0.844800,0.246000,0.122700,9.699800,-102.750000,-51.250000,4050.000000
1730861106914,-2.342800,0.518300,0.897900,0.290900,0.118500,9.689600,-121.500000,-49.500000,4032.750000
1730861106914,-2.383600,0.518300,0.906100,0.269400,0.118500,9.739900,-112.500000,-49.500000,4066.750000
1730861106914,-2.387700,0.497900,0.926500,0.310100,0.099900,9.647100,-129.500000,-41.750000,4028.000000
1730861106914,-2.440800,0.575500,0.938700,0.298100,0.131700,9.701000,-124.500000,-55.000000,4050.500000
1730861106914,-2.351000,0.510200,0.889700,0.302900,0.114300,9.666800,-122.750000,-48.000000,4037.250000
1730861106915,-2.269300,0.489700,0.836700,0.349000,0.092200,9.642900,-145.750000,-38.500000,4026.250000
1730861106915,-2.273400,0.461200,0.877500,0.202900,0.186200,9.924300,-84.750000,-77.750000,4143.750000
1730861106915,-2.383600,0.497900,0.853000,0.275400,0.102300,9.669800,-115.000000,-42.750000,4037.500000
1730861106915,-2.395900,0.436700,0.910200,0.304700,0.110100,9.668600,-122.000000,-44.750000,4042.000000
1730861106915,-2.310200,0.526500,0.881600,0.261000,0.150200,9.754900,-109.000000,-62.750000,4073.000000
1730861106915,-2.387700,0.485700,0.885700,0.286800,0.087400,9.663300,-119.750000,-36.500000,4034.750000
1730861106916,-2.297900,0.469300,0.881600,0.293300,0.098100,9.683600,-122.500000,-41.000000,4043.250000
1730861106916,-2.412200,0.510200,0.881600,0.290900,0.135300,9.681200,-125.250000,-56.750000,4044.500000
1730861106916,-2.302000,0.518300,0.869300,0.294500,0.114900,9.672800,-123.000000,-48.000000,4038.750000
1730861106916,-2.310200,0.481600,0.865300,0.289700,0.114300,9.681200,-121.000000,-47.750000,4042.250000
1730861106916,-2.371400,0.534600,0.906100,0.298100,0.110700,9.678800,-124.500000,-46.250000,4041.250000
1730861106916,-2.379500,0.518300,0.893800,0.292100,0.110100,9.677000,-123.250000,-45.250000,4040.500000
1730861106916,-2.432600,0.526500,0.906100,0.293300,0.106500,9.678200,-122.500000,-44.500000,4041.000000
1730861106917,-2.440800,0.526500,0.922400,0.307700,0.121500,9.681800,-128.500000,-50.750000,4042.500000
1730861106917,-2.453000,0.497900,0.902000,0.280800,0.115500,9.681800,-117.250000,-48.250000,4042.500000
1730861106917,-2.306100,0.502000,0.832600,0.290900,0.101100,9.681200,-121.500000,-42.250000,4042.250000
1730861106917,-2.330600,0.493800,0.840800,0.281400,0.122100,9.677000,-117.500000,-49.750000,4040.250000
1730861106917,-2.534600,0.497900,0.942800,0.289100,0.114300,9.675200,-120.750000,-47.750000,4039.750000
1730861106917,-2.306100,0.506100,0.889700,0.283800,0.123300,9.682400,-118.500000,-51.500000,4042.750000
1730861106917,-2.355100,0.571400,0.869300,0.286800,0.124500,9.677000,-119.750000,-52.000000,4040.500000
1730861106917,-2.375500,0.534600,0.885700,0.285000,0.105300,9.678200,-120.750000,-45.000000,4041.500000
1730861106918,-2.428500,0.571400,0.922400,0.290300,0.110100,9.678200,-121.250000,-46.000000,4041.000000
1730861106918,-2.289700,0.477500,0.906100,0.286800,0.110700,9.673400,-119.750000,-46.250000,4039.000000
1730861106918,-2.412200,0.497900,0.934600,0.291500,0.114300,9.674600,-121.750000,-47.750000,4039.500000
1730861106918,-2.444800,0.502000,0.885700,0.288000,0.112500,9.679400,-119.500000,-48.500000,4040.500000
1730861106918,-2.391800,0.567300,0.848900,0.439400,0.068800,9.438700,-183.500000,-28.750000,3941.000000
1730861106985,-2.269300,0.489700,0.865300,0.279000,0.121500,9.718900,-116.500000,-50.750000,4058.000000
1730861107085,-2.489700,0.546900,0.918300,0.318500,0.117900,9.676400,-133.000000,-49.250000,4040.250000
1730861107185,-2.326500,0.514200,0.897900,0.291500,0.100500,9.676400,-130.500000,-47.750000,4045.500000
1730861107284,-2.420400,0.489700,0.881600,0.296900,0.104700,9.677600,-124.000000,-43.750000,4040.750000
1730861107384,-2.359100,0.465300,0.877500,0.305300,0.118500,9.678800,-127.500000,-49.500000,4041.250000
1730861107484,-2.367300,0.502000,0.906100,0.295100,0.116700,9.680000,-123.250000,-48.750000,4041.750000
1730861107583,-2.322400,0.469300,0.804000,0.289100,0.121500,9.680000,-120.500000,-50.750000,4041.750000
1730861107683,-2.326500,0.555100,0.869300,0.305300,0.105300,9.679400,-127.500000,-44.000000,4041.500000
1730861107783,-2.400000,0.510200,0.902000,0.297500,0.104700,9.666800,-124.250000,-43.750000,4036.250000
1730861107882,-2.375500,0.551000,0.922400,0.283200,0.119700,9.679400,-118.250000,-50.000000,4041.500000
1730861107981,-2.404000,0.563200,0.861200,0.287400,0.104700,9.675200,-120.000000,-43.750000,4039.750000
1730861108082,-2.404000,0.526500,0.946900,0.286200,0.106500,9.682400,-118.250000,-45.250000,4042.750000
1730861108181,-2.383600,0.530600,0.910200,0.296300,0.112500,9.682400,-123.750000,-47.000000,4042.750000
1730861108280,-2.375500,0.534600,0.897900,0.294500,0.111900,9.677000,-123.000000,-46.750000,4040.500000
1730861108380,-2.322400,0.514200,0.865300,0.290900,0.110700,9.675200,-121.500000,-46.250000,4039.750000
1730861108480,-2.351000,0.506100,0.938700,0.284400,0.102900,9.680600,-113.000000,-41.750000,4033.000000
1730861108580,-2.395900,0.530600,0.938700,0.278400,0.117900,9.678800,-116.250000,-49.250000,4041.250000
1730861108680,-2.444800,0.538700,0.910200,0.281400,0.113100,9.679400,-117.500000,-47.250000,4041.500000
1730861108778,-2.428500,0.485700,0.893800,0.283800,0.109500,9.681200,-118.500000,-45.750000,4042.250000
1730861108878,-2.395900,0.559100,0.865300,0.290900,0.113100,9.679400,-123.250000,-44.500000,4040.250000
1730861108979,-2.310200,0.506100,0.869300,0.289100,0.115500,9.686000,-120.750000,-48.250000,4044.250000
1730861109078,-2.383600,0.510200,0.836700,0.291500,0.107700,9.675800,-121.750000,-45.000000,4040.000000
1730861109178,-2.461200,0.546900,0.914200,0.297500,0.111300,9.681200,-124.250000,-46.500000,4042.250000
1730861109277,-2.334600,0.538700,0.902000,0.304100,0.116700,9.671600,-118.500000,-46.000000,4042.250000
1730861109377,-2.310200,0.502000,0.844800,0.281400,0.117900,9.680600,-117.500000,-49.250000,4042.000000
1730861109477,-2.342800,0.493800,0.869300,0.299900,0.102900,9.668600,-125.250000,-43.000000,4037.000000
1730861109577,-2.387700,0.530600,0.902000,0.290300,0.110100,9.675800,-121.250000,-46.000000,4040.000000
1730861109676,-2.432600,0.514200,0.942800,0.295700,0.123900,9.680600,-123.500000,-49.000000,4042.000000
1730861109776,-3.546900,0.285700,-19.906100,0.040700,0.767600,9.692000,17.000000,320.500000,4046.750000
1730861109876,-2.836700,0.269300,0.840800,0.337600,0.126900,9.680000,-141.000000,-53.000000,4041.750000
1730861109975,-1.987700,0.563200,-1.918300,0.313100,0.219700,9.653100,-130.750000,-91.750000,4030.500000
1730861110075,-5.151000,1.693800,0.706100,0.285000,0.772900,9.718300,-93.250000,-322.750000,4057.750000
1730861110175,-9.567300,9.134600,5.493800,0.363400,0.911900,10.186600,151.750000,380.750000,4253.250000
1730861110274,11.224400,10.502000,0.959100,0.580100,0.079600,10.084200,-242.250000,33.250000,4210.500000
1730861110374,4.477500,5.934600,0.555100,0.418500,0.330500,10.250000,174.750000,-138.000000,4279.750000
1730861110474,7.089700,11.289700,0.804000,0.973500,0.914200,9.056700,406.500000,-381.750000,3781.500000
1730861110573,0.697900,3.330600,0.093800,1.567500,0.857400,9.182500,695.000000,-330.000000,3859.750000
1730861110673,4.277500,4.546900,-2.844800,1.696200,-1.142400,9.077700,708.250000,-477.000000,3790.250000
1730861110773,-2.236700,2.179500,-2.563200,1.976400,-1.199300,9.347100,825.250000,-500.750000,3902.750000
1730861110872,0.073400,11.465300,-3.191800,1.149000,0.979500,9.622500,479.750000,-409.000000,4017.750000
1730861110972,-1.608100,11.028500,-2.244800,2.032700,-1.638100,9.055500,829.750000,-681.000000,3828.250000
1730861111072,-3.599900,10.195900,-1.297900,2.499800,-1.414200,9.041100,1043.750000,-590.500000,3775.000000
1730861111171,-3.951000,4.824400,0.722400,3.226600,-1.487900,8.904600,1347.250000,-621.250000,3718.000000
1730861111271,0.371400,6.420400,-4.689700,4.793000,-1.329800,8.933400,2001.250000,-555.250000,3730.000000
1730861111370,4.820400,-1.326500,-4.081600,2.424900,-1.625600,8.367500,1069.750000,-703.250000,3434.000000
1730861111470,11.416300,15.208100,-9.187700,4.571400,-1.851900,8.381300,1908.750000,-773.250000,3499.500000
1730861111569,7.089700,16.008100,-11.367300,3.201500,-2.909900,8.935200,1336.750000,-1215.000000,3730.750000
1730861111670,-2.220400,20.297900,-19.812200,4.670800,-2.831500,7.717900,1950.250000,-1182.250000,3222.500000
1730861111769,9.489700,14.461200,-18.130600,4.776200,-3.606300,7.650200,1872.750000,-1538.000000,3128.000000
1730861111869,5.632600,19.808100,-6.387700,5.525900,-4.422400,6.643700,2307.250000,-1846.500000,2774.000000
1730861111969,2.628500,9.420400,-25.134600,5.761800,-3.996000,6.219200,2405.750000,-1668.500000,2596.750000
1730861112068,4.538700,4.326500,-16.885700,5.498300,-5.070800,6.427000,2295.750000,-2117.250000,2683.500000
1730861112168,-17.061200,24.310200,-36.330600,4.456500,-5.473800,5.298900,2110.750000,-2356.000000,2212.500000
1730861112268,-4.493800,0.742800,-23.702000,3.897200,-6.045600,6.477300,1627.250000,-2524.250000,2704.500000
1730861112367,-8.926500,14.195900,9.791800,4.937900,-4.494800,6.067100,2061.750000,-1876.750000,2533.250000
1730861112467,2.681600,19.208100,-17.579500,5.013300,-5.852800,4.858200,2093.250000,-2443.750000,2028.500000
1730861112567,-3.122400,9.677500,-21.167300,4.157100,-6.397600,5.286400,1735.750000,-2671.250000,2207.250000
1730861112667,-10.489700,19.987700,-18.220400,4.784600,-6.662900,5.019900,1997.750000,-2718.000000,2121.750000
1730861112767,-5.412200,13.281600,-22.171400,4.300200,-6.829900,5.283400,1795.500000,-2851.750000,2206.000000
1730861112866,-15.844800,35.265300,-23.922400,4.789400,-6.980200,4.542100,1999.750000,-2914.500000,1896.500000
1730861112966,-22.248900,41.522400,-22.453000,4.699000,-7.032300,3.921800,1962.000000,-2936.250000,1637.500000
1730861113066,-17.991800,8.657100,-17.155100,4.260100,-7.364000,4.140900,1816.750000,-3063.250000,1749.000000
1730861113166,-16.734600,13.657100,-14.122400,3.900200,-7.328700,4.468500,1628.500000,-3060.000000,1865.750000
1730861113265,-18.975500,5.400000,-6.677500,4.072700,-7.160500,4.733700,1700.500000,-2989.750000,1976.500000
1730861113365,-22.457100,6.555100,-1.930600,4.123000,-7.016200,4.805600,1721.500000,-2929.500000,2006.500000
1730861113464,-19.208100,2.412200,1.522400,4.606200,-6.570100,5.969500,1935.250000,-2694.000000,2473.000000
1730861113564,-19.318300,2.587700,8.297900,4.939100,-6.349100,6.254500,2062.250000,-2651.000000,2611.500000
1730861113664,-16.334600,0.253000,4.253000,4.061900,-5.088800,7.120300,1696.000000,-2124.750000,2973.000000
1730861113763,-16.375500,2.204000,3.657100,4.699000,-4.907300,6.988000,1962.000000,-2049.000000,2917.750000
1730861113863,-19.726500,8.020400,6.318300,5.251600,-4.474400,6.483900,2104.000000,-1717.000000,2774.250000
1730861113963,-11.199900,-5.106100,6.171400,5.289400,-3.738000,6.862900,2208.500000,-1560.750000,2865.500000
1730861114062,-13.853000,-7.281600,9.130600,4.694800,-3.344000,7.044900,1960.250000,-1396.250000,2941.500000
1730861114162,-19.167300,0.065300,15.102000,5.424700,-2.630900,7.094600,2265.000000,-1098.500000,2962.250000
1730861114262,-20.351000,6.351000,2.893800,4.379200,-2.251900,6.849700,1827.250000,-940.250000,2860.000000
1730861114362,-16.420400,-4.248900,8.028500,5.612700,-1.428000,7.274200,2343.500000,-596.250000,3037.250000
1730861114461,-14.689700,6.375500,0.514200,6.321600,0.673000,7.498200,2639.500000,-281.000000,3130.750000
1730861114561,-16.632600,-5.048900,5.314200,5.706700,0.277800,7.669400,2382.750000,-116.000000,3202.250000
1730861114660,-21.951000,-3.906100,7.832600,5.597100,0.405900,7.610700,2337.000000,169.500000,3177.750000
1730861114760,-21.918300,-3.661200,9.236700,5.691100,1.050200,7.734700,2414.000000,474.000000,3238.250000
1730861114859,-19.771400,-3.665300,6.902000,5.342600,1.735700,7.571200,2230.750000,724.750000,3161.250000
1730861114958,-20.914200,-6.432600,8.718300,4.999000,2.393200,7.495800,2087.250000,999.250000,3129.750000
1730861115059,-24.938700,-18.085700,14.575500,4.615200,3.773900,6.606600,1927.000000,1575.750000,2758.500000
1730861115158,-17.142800,-10.714200,10.322400,4.488200,4.148100,7.913700,1790.000000,1755.000000,3304.250000
1730861115259,-11.146900,-9.661200,10.240800,3.247000,4.518200,7.332300,1355.750000,1886.500000,3061.500000
1730861115358,-10.130600,-2.269300,7.371400,3.764900,5.078600,7.803500,1572.000000,2120.500000,3258.250000
1730861115458,-7.604000,-6.816300,8.436700,2.980600,5.095400,7.267600,1244.500000,2127.500000,3034.500000
1730861115557,-6.938700,-17.685700,13.346900,2.892500,5.311500,7.448500,1048.250000,2209.500000,3084.500000
1730861115657,-4.657100,-21.208100,10.587700,1.662700,5.546800,7.617300,694.250000,2316.000000,3180.500000
1730861115757,-1.440800,-19.497900,10.134600,0.443000,5.516900,7.727500,185.000000,2303.500000,3226.500000
1730861115856,2.710200,-10.902000,6.681600,0.277800,5.561200,7.803500,-116.000000,2322.000000,3258.250000
1730861115955,10.865300,-25.877500,7.444800,0.149000,5.404300,8.087300,-120.750000,2208.500000,3416.500000
1730861116056,17.910200,-26.706100,7.873400,0.998700,4.536700,8.244200,-417.000000,1894.250000,3442.250000
1730861116156,17.081600,-23.355100,7.489700,-1.999200,4.260100,8.659700,-834.750000,1778.750000,3615.750000
1730861116255,20.951000,-7.751000,2.848900,-2.315900,3.290700,9.646500,-967.000000,1374.000000,4027.750000
1730861116355,31.844800,-12.759100,0.673400,-2.954200,2.239900,9.186600,-1273.250000,941.000000,3835.750000
1730861116455,27.334600,-14.967300,3.400000,-3.180500,1.365700,9.326800,-1328.000000,570.250000,3894.250000
1730861116553,24.669300,-7.636700,0.420400,-4.197800,0.835200,9.034600,-1752.750000,-348.750000,3772.250000
1730861116654,12.518300,2.379500,0.959100,-4.418800,0.657400,9.144100,-1845.000000,-274.500000,3818.000000
1730861116754,5.338700,14.073400,-2.795900,-3.196100,0.495700,8.871700,-1334.500000,-207.000000,3704.250000
1730861116853,7.346900,22.555100,6.420400,-3.359000,-1.257300,9.307600,-1402.500000,-453.250000,3984.750000
1730861116953,3.783600,52.391800,8.465300,0.846000,-1.157900,9.587800,-353.250000,-483.500000,4003.250000
1730861117053,16.987700,14.673400,7.930600,0.883100,-2.184800,9.630900,-368.750000,-912.250000,4021.250000
1730861117152,9.228500,20.959100,4.493800,-1.608800,-2.788400,8.461600,-671.750000,-1164.250000,3533.000000
1730861117252,10.889700,26.563200,3.461200,1.250200,-3.061400,9.283600,522.250000,-1276.000000,3824.750000
1730861117352,9.951000,31.685700,3.571400,2.575800,-3.453600,8.740600,1075.500000,-1442.000000,3649.500000
1730861117451,6.151000,28.804000,6.420400,3.750000,-3.763700,8.505900,1565.750000,-1571.500000,3551.500000
1730861117551,6.612200,21.028500,5.432600,3.688900,-3.761300,7.444900,1540.250000,-1570.500000,3108.500000
1730861117650,1.922400,18.453000,4.330600,5.242000,-3.751100,7.189800,2120.000000,-1586.750000,2959.500000
1730861117750,4.159100,14.914200,3.616300,6.116200,-4.018200,6.915600,2553.750000,-1677.750000,2887.500000
1730861117849,-1.853000,11.485700,3.795900,6.179700,-3.830800,6.250400,2580.250000,-1599.500000,2609.750000
1730861117950,-3.134600,10.195900,4.518300,6.360500,-3.314700,6.017400,2655.750000,-1384.000000,2512.500000
1730861118049,0.244800,8.155100,5.485700,6.483300,-3.815800,5.616900,2737.250000,-1571.250000,2306.500000
1730861118149,-10.836700,21.791800,10.167300,7.340100,-3.308100,5.397100,3064.750000,-1381.250000,2253.500000
1730861118248,-5.355100,0.612200,6.906100,7.128700,-2.666800,5.225900,2976.500000,-1113.500000,2182.000000
1730861118349,-10.093800,-3.244800,4.420400,7.762800,-2.595600,5.708500,3241.250000,-1083.750000,2383.500000
1730861118448,-10.289700,-20.526500,3.204000,7.328700,-2.372800,5.218700,2990.750000,-938.000000,2179.000000
1730861118548,-14.824400,-11.820400,-2.608100,7.042500,-1.759700,5.637200,2940.500000,-734.750000,2353.750000
1730861118647,-14.416300,-6.461200,3.224400,6.538400,-2.008200,6.374300,2730.000000,-838.500000,2661.500000
1730861118747,-5.624400,-20.269300,0.371400,6.550300,-1.084900,6.490500,2735.000000,-453.000000,2710.000000
1730861118847,-2.244800,-23.600000,0.069300,6.149800,-1.604600,8.016700,2567.750000,-670.000000,3347.250000
1730861118946,0.653000,-32.718300,0.436700,5.081600,-2.046500,7.987300,2121.750000,-854.500000,3399.000000
1730861119046,-11.212200,-26.648900,3.053000,3.673900,-1.025600,8.236400,1534.000000,-428.250000,3439.000000
1730861119145,-17.759100,-25.595900,4.595900,3.303300,0.691500,8.766900,1379.250000,-288.750000,3660.500000
1730861119245,-15.959100,-35.208100,0.648900,2.069200,0.064000,9.823100,864.000000,-26.750000,4101.500000
1730861119345,-19.253000,-34.024400,1.824400,0.749000,0.103500,9.680000,251.750000,-3.500000,4028.250000
1730861119445,-13.089700,-31.293800,1.653000,0.333500,0.748400,9.907500,-139.250000,312.500000,4136.750000
1730861119544,-5.787700,-27.085700,3.138700,-1.263900,1.025600,9.489600,-527.750000,428.250000,3962.250000
1730861119644,-9.612200,-34.751000,3.751000,-2.236900,1.157900,9.627900,-934.000000,483.500000,4020.000000
1730861119744,-6.065300,-29.759100,3.428500,-3.468500,1.582500,9.258500,-1437.750000,613.000000,3834.000000
1730861119844,-1.885700,-22.555100,2.404000,-4.417600,1.305800,8.621400,-1844.500000,545.250000,3599.750000
1730861119943,-2.004000,-30.506100,0.604000,-5.382800,1.330400,8.007100,-2247.500000,555.500000,3343.250000
1730861120042,-2.216300,-25.416300,-1.416300,-5.514500,1.190900,8.084300,-2302.500000,497.250000,3375.500000
1730861120143,-3.742800,-20.963200,-2.171400,-6.853900,1.232200,7.185000,-2859.750000,531.000000,2970.500000
1730861120242,-2.963200,5.718300,-2.391800,-6.962300,1.666900,6.921000,-2907.000000,696.000000,2889.750000
1730861120341,8.069300,20.420400,-2.297900,-6.006700,1.586100,7.536500,-2508.000000,662.250000,3146.750000
1730861120441,2.869300,41.310200,-9.085700,-4.917500,1.056200,8.562700,-2053.250000,441.000000,3575.250000
1730861120540,3.481600,32.334600,-9.681600,-4.431900,1.678300,8.608800,-1732.000000,662.000000,3586.000000
1730861120640,0.779500,39.857100,-6.795900,-3.479900,0.944200,9.139300,-1453.000000,394.250000,3816.000000
1730861120741,-5.318300,46.428500,-14.857100,0.963300,1.972800,9.633900,-402.250000,823.750000,4022.500000
1730861120839,-11.861200,64.800000,-25.775500,2.195000,1.532200,9.544700,916.500000,639.750000,3985.250000
1730861120940,-9.730600,51.122400,-24.881600,2.542300,1.437600,8.491500,1075.250000,600.250000,3545.500000
1730861121039,-3.706100,37.093800,-22.820400,4.560100,1.201100,7.761600,1904.000000,501.500000,3240.750000
1730861121139,2.310200,20.395900,-18.146900,4.545700,0.699300,7.402400,1898.000000,292.000000,3090.750000
1730861121238,8.130600,13.881600,-18.171400,6.636500,0.122100,8.013700,2771.000000,51.000000,3346.000000
1730861121338,-3.624400,22.857100,-22.971400,6.846700,0.162200,7.073600,2858.750000,-67.750000,2953.500000
1730861121438,-13.367300,32.820400,-31.600000,7.525700,0.881900,5.964100,3295.000000,-425.750000,2560.750000
1730861121538,-3.959100,19.591800,-25.326500,7.093400,-1.538800,5.025900,2961.750000,-642.500000,2098.500000
1730861121638,-2.575500,8.910200,-24.081600,7.238900,-1.839300,5.291100,3022.500000,-768.000000,2209.250000
1730861121736,6.330600,15.065300,-33.579500,7.910700,-2.584200,4.597800,3303.000000,-1079.000000,1919.750000
1730861121837,-4.473400,-3.391800,-51.881600,7.052700,-4.453500,3.738600,3034.250000,-1855.500000,1622.500000
1730861121936,5.424400,0.840800,-43.208100,6.083300,-5.307900,4.049300,2540.000000,-2216.250000,1690.750000
1730861122037,-5.832600,-7.020400,-36.714200,6.213200,-6.860500,4.361300,2594.250000,-2864.500000,1821.000000
1730861122136,1.371400,-7.608100,-37.391800,4.818700,-7.761600,4.408600,2012.000000,-3240.750000,1840.750000
1730861122236,-6.187700,-12.297900,-33.187700,2.712300,-8.134000,4.242100,1161.500000,-3305.000000,1853.250000
1730861122336,-5.726500,-7.759100,-27.738700,1.990800,-8.112500,4.641500,831.250000,-3387.250000,1938.000000
1730861122435,-14.106100,-36.155100,-26.934600,0.777700,-8.213100,4.715100,324.750000,-3429.250000,1968.750000
1730861122535,0.955100,8.428500,-25.804000,0.288500,-8.426200,5.851600,-120.500000,-3518.250000,2443.250000
1730861122635,-9.379500,1.000000,-20.208100,0.525700,-7.492800,5.663600,-282.250000,-3095.250000,2377.250000
1730861122734,2.404000,17.408100,-11.722400,-2.070400,-8.102900,5.824600,-864.500000,-3383.250000,2432.000000
1730861122834,10.502000,8.955100,-2.236700,0.471200,-8.182500,5.435400,-196.750000,-3416.500000,2269.500000
1730861122933,3.918300,0.979500,0.097900,0.222700,-8.137600,4.999600,-93.000000,-3397.750000,2087.500000
1730861123033,8.836700,4.277500,1.142800,0.160400,-8.452000,4.845100,-64.000000,-3529.000000,2023.000000
1730861123132,10.583600,4.277500,1.991800,0.059200,-8.775300,4.188200,24.750000,-3664.000000,1812.750000
1730861123232,10.285700,2.763200,4.853000,0.344800,-8.705200,4.205600,-144.000000,-3634.750000,1756.000000
1730861123332,16.093800,8.151000,9.477500,0.251400,-8.592700,3.278100,105.000000,-3587.750000,1368.750000
1730861123432,20.363200,9.771400,9.604000,1.218400,-9.541700,2.020100,508.750000,-3984.000000,843.500000
1730861123531,20.861200,20.934600,3.159100,1.128000,-9.742900,1.558500,569.750000,-4271.000000,285.250000
1730861123631,11.097900,1.195900,4.208100,1.930300,-9.844700,1.052600,806.000000,-4110.500000,439.500000
1730861123731,18.844800,13.273400,6.518300,1.533400,-9.657300,0.316700,640.250000,-4032.250000,-132.250000
1730861123831,28.910200,23.542800,9.155100,1.109400,-9.293800,0.780100,463.250000,-3880.500000,-325.750000
1730861123930,40.269300,31.089700,19.036700,1.336400,-8.968700,-2.315900,608.750000,-3647.750000,-1128.500000
1730861124030,30.461200,11.914200,12.853000,2.293200,-8.067600,-4.780400,957.500000,-3368.500000,-1996.000000
1730861124130,20.795900,9.395900,11.869300,2.787200,-8.173600,-6.062300,1163.750000,-3412.750000,-2531.250000
1730861124229,15.012200,6.575500,11.179500,2.692000,-7.201800,-5.910300,1124.000000,-3007.000000,-2467.750000
1730861124329,20.065300,9.457100,8.722400,2.948800,-6.518000,-6.612600,1383.250000,-2662.750000,-2727.500000
1730861124429,23.738700,16.191800,14.702000,2.736900,-5.969500,-7.235300,1142.750000,-2492.500000,-3021.000000
1730861124529,22.616300,14.563200,11.706100,3.493700,-5.200700,-8.366400,1458.750000,-2171.500000,-3493.250000
1730861124628,25.775500,21.395900,15.363200,2.242300,-4.130200,-8.635200,936.250000,-1724.500000,-3605.500000
1730861124728,26.967300,16.261200,13.893800,2.118900,-2.725500,-8.812400,790.250000,-1119.250000,-3726.000000
1730861124827,18.489700,-3.738700,5.665300,1.792600,-1.710000,-9.348300,748.500000,-714.000000,-3903.250000
1730861124927,19.465300,5.346900,9.416300,1.650700,0.913600,-9.697400,689.250000,-381.500000,-4049.000000
1730861125027,20.338700,-1.118300,11.048900,1.529200,0.104100,-9.480600,638.500000,-43.500000,-3958.500000
1730861125126,14.963200,-1.734600,8.412200,1.528000,0.768200,-9.545900,659.500000,320.750000,-3985.750000
1730861125226,24.542800,9.163200,9.106100,1.248400,1.484300,-9.544700,521.250000,619.750000,-3921.250000
1730861125326,11.048900,0.257100,6.742800,1.398000,2.124300,-9.513000,583.750000,887.000000,-3972.000000
1730861125425,7.159100,-2.636700,5.110200,1.256100,3.245800,-9.645300,524.500000,1355.250000,-4027.250000
1730861125525,10.930600,-1.893800,4.583600,1.527400,3.051800,-9.400400,637.750000,1274.250000,-3925.000000
1730861125625,12.906100,0.044800,6.897900,1.135800,3.949900,-8.857900,469.250000,1619.250000,-3723.250000
1730861125724,13.375500,0.171400,5.906100,1.280700,4.193000,-8.769900,534.750000,1750.750000,-3661.750000
1730861125824,8.836700,0.375500,5.497900,1.093300,4.618100,-8.246000,456.500000,1928.250000,-3443.000000
1730861125924,8.742800,-2.840800,3.636700,0.776500,5.358800,-7.991500,324.250000,2237.500000,-3336.750000
1730861126023,9.355100,0.930600,5.918300,0.850200,5.342600,-7.983100,331.000000,2297.750000,-3321.250000
1730861126123,15.040800,1.473400,5.404000,0.547800,6.227000,-7.583800,228.750000,2600.000000,-3166.500000
1730861126222,9.722400,-1.322400,5.746900,0.324500,6.486300,-7.332300,135.500000,2708.250000,-3061.500000
1730861126322,7.281600,-1.208100,6.514200,0.092200,6.936500,-6.924000,38.500000,2896.250000,-2891.000000
1730861126421,-2.791800,3.604000,9.771400,0.139500,6.997600,-6.967100,32.250000,2958.500000,-2864.000000
1730861126522,-14.644800,7.061200,11.959100,0.493900,6.718600,-7.009000,-206.250000,2805.250000,-2926.500000
1730861126622,-20.885700,3.604000,13.971400,0.997500,6.265900,-7.477200,-416.500000,2616.250000,-3122.000000
1730861126721,-16.346900,-2.812200,7.702000,-1.402200,5.583900,-7.888500,-585.500000,2331.500000,-3293.750000
1730861126821,-21.767300,8.326500,10.575500,-1.851900,5.111500,-8.140000,-744.250000,2210.000000,-3439.500000
1730861126921,-16.604000,2.873400,6.012200,-2.265000,4.841500,-8.125100,-945.750000,2021.500000,-3392.500000
1730861127020,-13.224400,2.506100,3.469300,-2.648200,3.809800,-7.959200,-1105.750000,1590.750000,-3323.250000
1730861127120,-10.787700,7.538700,0.048900,-2.817700,3.576900,-8.687900,-1176.500000,1493.500000,-3627.500000
1730861127219,-10.575500,5.991800,0.338700,-2.942200,3.085300,-8.383700,-1265.500000,1288.250000,-3500.500000
1730861127319,-7.265300,13.526500,0.142800,-3.551200,3.565500,-9.505800,-1482.750000,1488.750000,-3713.000000
1730861127419,0.987700,24.171400,0.069300,-4.246300,3.192500,-8.643000,-1773.000000,1333.000000,-3608.750000
1730861127518,-2.861200,22.412200,0.551000,-4.522900,2.920700,-7.902300,-1888.500000,1219.500000,-3299.500000
1730861127618,-2.546900,19.918300,0.893800,-5.834800,2.908100,-7.363400,-2436.250000,1214.250000,-3074.500000
1730861127717,-3.191800,15.346900,1.289700,-6.212000,2.818300,-7.448500,-2635.250000,1217.750000,-3054.750000
1730861127818,-1.048900,13.510200,1.195900,-6.599400,3.169200,-7.036500,-2755.500000,1323.250000,-2938.000000
1730861127918,-2.416300,3.493800,0.640800,-6.819200,2.857800,-6.554500,-2847.250000,1193.250000,-2736.750000
1730861128017,0.551000,13.269300,5.889700,-7.300000,2.957200,-6.474900,-3048.000000,1234.750000,-2703.500000
1730861128117,0.844800,11.689700,3.383600,-7.682600,2.651200,-6.292300,-3170.250000,1092.250000,-2611.250000
1730861128217,-10.906100,-6.085700,5.967300,-8.034000,2.459600,-5.936600,-3354.500000,1027.000000,-2478.750000
1730861128316,-8.367300,-19.285700,8.183600,-7.449100,2.381800,-6.444300,-3110.250000,994.500000,-2690.750000
1730861128416,-6.012200,-1.118300,7.995900,-7.426900,1.547700,-6.797000,-3101.000000,646.250000,-2838.000000
1730861128516,-11.297900,-22.612200,4.951000,-6.636500,1.458500,-7.176000,-2862.750000,624.250000,-2956.750000
1730861128616,-17.693800,-33.351000,9.093800,-6.640700,1.001700,-7.536500,-2772.750000,418.250000,-3146.750000
1730861128715,-11.955100,-18.200000,8.269300,-5.146800,0.515500,-8.114900,-2149.000000,215.250000,-3388.250000
1730861128815,-8.461200,-9.302000,7.648900,-5.567200,0.407100,-8.586100,-2324.500000,-170.000000,-3585.000000
1730861128915,-13.453000,-51.783600,2.853000,-4.320000,0.558000,-8.672300,-1842.500000,-333.500000,-3604.250000
1730861129015,-24.114200,-55.502000,0.489700,-2.518900,-1.331600,-9.705800,-1051.750000,-556.000000,-4052.500000
1730861129114,-31.510200,-30.151000,5.906100,0.786700,-2.333300,-10.744600,-328.500000,-974.250000,-4486.250000
1730861129214,-12.942800,-6.257100,2.791800,0.223900,-2.845800,-9.254300,-93.500000,-1188.250000,-3864.000000
1730861129312,-30.934600,-6.942800,0.391800,0.256200,-3.159600,-8.502900,-107.000000,-1319.250000,-3550.250000
1730861129413,-17.857100,-22.465300,-2.853000,0.453200,-3.587700,-8.683700,189.250000,-1498.000000,-3522.750000
1730861129513,-8.571400,-20.134600,-11.310200,0.851400,-4.436700,-8.294500,355.500000,-1852.500000,-3463.250000
1730861129612,-9.408100,-31.085700,-9.718300,1.395000,-4.892400,-8.671100,582.500000,-2042.750000,-3620.500000
1730861129712,-12.093800,-28.318300,-5.220400,3.254800,-5.815100,-8.629200,1359.000000,-2428.000000,-3603.000000
1730861129812,-22.489700,-45.028500,-5.028500,2.085400,-5.936000,-7.388000,940.000000,-2520.250000,-3089.750000
1730861129911,-15.730600,-31.714200,-1.685700,3.696100,-5.761200,-6.025800,1543.250000,-2405.500000,-2516.000000
1730861130010,-7.044800,-11.228500,-2.563200,5.128300,-5.681500,-5.980900,2141.250000,-2372.250000,-2497.250000
1730861130110,-1.820400,-17.714200,-2.591800,4.730100,-6.626400,-5.755800,1975.000000,-2766.750000,-2403.250000
1730861130210,-2.322400,-23.008100,3.404000,5.249200,-6.494000,-5.360600,2322.250000,-2706.500000,-2320.250000
1730861130309,2.395900,-39.608100,10.869300,5.393500,-5.811500,-4.184600,2252.000000,-2426.500000,-1747.250000
1730861130410,3.489700,-33.040800,10.644800,5.996500,-5.497100,-3.528400,2503.750000,-2295.250000,-1473.250000
1730861130509,8.730600,-8.457100,10.542800,8.427400,-5.482100,-4.058300,3518.750000,-2289.000000,-1694.500000
1730861130610,12.840800,-24.167300,21.302000,7.337700,-4.709800,-3.065000,3144.500000,-1992.750000,-1267.500000
1730861130709,9.808100,-28.604000,20.220400,8.165800,-3.867900,-2.383000,3409.500000,-1615.000000,-995.000000
1730861130809,6.669300,-18.938700,17.024400,10.100900,-2.897900,-2.635700,4217.500000,-1210.000000,-1100.500000
1730861130907,9.755100,-6.848900,21.269300,8.957300,-2.640500,-1.705800,3740.000000,-1102.500000,-712.250000
1730861131008,6.693800,3.612200,15.314200,9.333300,-1.495600,-2.074000,3879.250000,-624.500000,-866.000000
1730861131108,8.571400,-8.934600,21.959100,9.010600,0.977100,-1.347700,3762.250000,-408.000000,-566.500000
1730861131207,11.738700,-15.469300,32.538700,9.060900,0.293300,0.975300,3783.250000,122.500000,-407.250000
1730861131307,5.738700,-16.742800,23.000000,9.414800,1.444700,0.614300,3931.000000,603.250000,-256.500000
1730861131407,12.085700,-13.514200,29.053000,9.020200,2.563200,0.048400,3766.250000,1070.250000,20.250000
1730861131506,3.546900,-9.648900,29.767300,9.155500,3.165000,0.009500,3882.500000,1345.500000,69.250000
1730861131606,-2.130600,-7.942800,31.228500,8.117300,4.197200,0.782500,3389.250000,1752.500000,326.750000
1730861131706,-7.289700,18.208100,35.281600,8.744800,6.424000,0.089800,3651.250000,2682.250000,-37.500000
1730861131806,6.644800,-29.008100,29.922400,7.166400,6.345600,0.584300,2992.250000,2649.500000,244.000000
1730861131905,-1.163200,-3.444800,23.783600,5.712700,6.835300,1.307600,2412.750000,2907.750000,634.500000
1730861132004,5.759100,-10.567300,15.771400,5.330700,6.690400,0.966300,2225.750000,2793.500000,403.500000
1730861132105,-4.110200,-13.665300,13.424400,4.688800,7.965200,2.588400,1957.750000,3325.750000,1080.750000
1730861132204,-1.110200,-31.375500,8.314200,4.418200,8.080700,2.657200,1844.750000,3374.000000,1109.500000
1730861132304,-5.857100,-21.697900,0.330600,4.260100,8.526200,2.803300,1868.500000,3554.750000,1139.250000
1730861132403,0.665300,-30.575500,0.995900,3.741600,8.159200,3.241000,1562.250000,3406.750000,1353.250000
1730861132503,-2.265300,-27.624400,0.632600,4.003800,8.149000,3.821200,1671.750000,3402.500000,1595.500000
1730861132602,-3.853000,-36.746900,-4.591800,2.237500,7.837700,4.161900,934.250000,3272.500000,1737.750000
1730861132702,-5.110200,-31.844800,-1.016300,1.428000,8.368100,5.266600,307.500000,3474.000000,2199.000000
1730861132802,0.579500,-26.081600,0.653000,2.663200,8.016700,4.378000,1112.000000,3347.250000,1828.000000
1730861132902,1.804000,-18.306100,-6.146900,2.074600,8.435800,4.885200,866.250000,3522.250000,2039.750000
1730861133002,5.865300,-47.489700,-4.310200,1.462100,7.836500,5.384000,610.500000,3272.000000,2248.000000
1730861133101,2.881600,-27.506100,5.579500,0.571800,7.426300,5.814500,238.750000,3100.750000,2427.750000
1730861133201,-2.036700,-17.497900,7.889700,0.292100,7.500600,5.682700,-122.000000,3254.250000,2232.500000
1730861133300,-9.371400,-31.151000,12.669300,0.429900,7.028700,5.451000,-179.500000,2934.750000,2276.000000
1730861133401,-14.016300,-19.632600,11.493800,-2.796700,8.280700,5.069000,-1167.750000,3457.500000,2116.500000
1730861133500,-9.612200,0.751000,9.546900,-2.965600,7.583200,5.016300,-1238.250000,3166.250000,2094.500000
1730861133599,-7.742800,-7.310200,16.040800,-2.997300,7.805900,5.251000,-1310.000000,3207.500000,2063.000000
1730861133700,0.534600,-8.093800,21.057100,-2.923700,8.073000,5.774300,-1220.750000,3370.750000,2411.000000
1730861133798,-3.530600,0.473400,6.689700,-4.108600,7.192200,4.675000,-1715.500000,3003.000000,1952.000000
1730861133898,-4.591800,4.440800,0.093800,-4.037400,7.502300,4.830700,-1685.750000,3132.500000,2017.000000
1730861133999,7.175500,11.832600,-17.212200,-3.392500,7.530500,5.187600,-1373.000000,3036.000000,2082.000000
1730861134098,32.448900,24.008100,-36.473400,-2.015400,7.678400,6.533000,-841.500000,3206.000000,2727.750000
1730861134198,39.567300,18.689700,-36.767300,-1.369900,5.903700,6.850900,-572.000000,2465.000000,2860.500000
1730861134298,44.685700,16.510200,-30.191800,0.959800,6.024600,7.528100,-400.750000,2515.500000,3143.250000
1730861134397,51.171400,17.212200,-24.000000,1.415400,3.356000,9.359700,590.750000,1287.250000,3971.000000
1730861134497,54.608100,-25.351000,-4.028500,2.023100,1.428600,9.012400,844.750000,596.500000,3763.000000
1730861134597,43.383600,-18.648900,4.946900,-3.614000,0.350200,10.367400,-1509.000000,146.250000,4328.750000
1730861134697,37.097900,-1.195900,-7.387700,0.581300,-1.894400,9.226800,242.750000,-791.000000,3852.500000
1730861134796,39.844800,-17.959100,-2.400000,0.607100,-3.490100,9.628500,255.000000,-1457.250000,4020.250000
1730861134896,9.661200,-7.404000,0.020400,0.758000,-3.382900,8.302300,-316.500000,-1412.500000,3292.750000
1730861134996,40.669300,0.959100,-17.175500,-1.137600,-4.643300,8.316700,-475.000000,-1938.750000,3472.500000
1730861135096,19.751000,-6.163200,-6.171400,-2.541100,-6.556900,8.719000,-1061.000000,-2737.750000,3640.500000
1730861135195,6.893800,-2.861200,-9.816300,-1.832700,-5.793500,7.232300,-765.250000,-2419.000000,3019.750000
1730861135295,18.710200,-6.595900,-8.791800,-1.928500,-6.645500,6.594600,-790.750000,-2793.000000,2731.250000
1730861135395,14.077500,-10.636700,3.636700,-1.286700,-7.031100,6.283900,-537.250000,-2935.750000,2623.750000
1730861135494,11.179500,-17.379500,33.281600,-1.905800,-8.137600,5.073200,-795.750000,-3397.750000,2118.250000
1730861135594,5.983600,-5.493800,43.432600,-1.877000,-8.647200,4.894200,-783.750000,-3610.500000,2043.500000
1730861135694,-5.869300,-10.367300,21.171400,-2.012400,-9.128000,4.722900,-792.250000,-3870.750000,1953.000000
1730861135793,15.040800,-5.726500,-4.555100,0.153800,-8.895700,3.940400,64.250000,-3714.250000,1645.250000
1730861135893,35.142800,-31.330600,0.028500,0.829800,-8.699900,4.409800,-346.500000,-3632.500000,1841.250000
1730861135993,22.469300,-35.738700,18.832600,0.329300,-9.259100,3.460800,137.500000,-3866.000000,1445.000000
1730861136092,7.551000,-54.000000,42.481600,0.034100,-9.494400,2.282400,-231.750000,-3921.750000,928.250000
1730861136192,-14.546900,-14.514200,10.138700,0.827400,-9.886000,1.633400,-345.500000,-4127.750000,682.000000
1730861136292,17.187700,-11.114200,-10.330600,1.020200,-9.181300,1.326200,426.000000,-3833.500000,553.750000
1730861136391,35.453000,-24.514200,-2.142800,0.270600,-9.782400,1.375900,113.000000,-4084.500000,574.500000
1730861136491,4.073400,-15.036700,-5.187700,0.327500,-10.315300,0.362200,-153.250000,-4307.000000,151.250000
1730861136591,-1.808100,-34.608100,-28.204000,0.899300,-9.929700,0.452000,-375.500000,-4146.000000,-188.750000
1730861136690,-19.861200,-20.465300,-27.457100,-1.477700,-9.486000,0.157400,-617.000000,-3960.750000,65.750000
1730861136791,-5.469300,-11.228500,-24.632600,-2.638100,-8.871100,1.534600,-1101.500000,-3704.000000,640.750000
1730861136889,-23.669300,-1.477500,-24.448900,-2.905700,-8.890300,0.659200,-1213.250000,-3712.000000,275.250000
1730861136989,-14.077500,2.885700,-27.885700,-4.160100,-9.644700,1.420200,-1628.500000,-3997.250000,567.250000
1730861137089,-20.208100,-2.155100,-23.730600,-4.351100,-8.515400,2.038100,-1816.750000,-3555.500000,851.000000
1730861137188,-11.212200,-8.555100,-21.367300,-6.163500,-8.186100,2.366800,-2573.500000,-3418.000000,988.250000
1730861137288,-6.257100,-6.906100,-29.159100,-6.089900,-7.159900,1.807000,-2542.750000,-2989.500000,754.500000
1730861137389,-8.167300,-6.889700,-29.265300,-8.986700,-7.858000,2.026700,-3550.500000,-3153.500000,675.250000
1730861137488,-14.204000,10.285700,-26.783600,-7.335900,-5.698300,2.521300,-3063.000000,-2379.250000,1052.750000
1730861137588,-18.187700,13.102000,-21.767300,-8.068800,-4.910300,3.402700,-3369.000000,-2050.250000,1420.750000
1730861137688,-8.836700,2.612200,-18.032600,-7.935800,-4.250500,4.046900,-3313.500000,-1774.750000,1689.750000
1730861137787,-7.800000,3.910200,-9.620400,-8.186100,-4.645100,3.957100,-3429.250000,-1873.000000,1656.750000
1730861137887,-5.877500,4.102000,-9.179500,-8.462200,-3.741600,4.336700,-3533.250000,-1562.250000,1810.750000
1730861137987,-8.677500,8.489700,-9.208100,-8.029900,-3.326600,5.070200,-3352.750000,-1389.000000,2117.000000
1730861138087,-7.314200,16.706100,-5.510200,-7.830500,-3.047000,4.970200,-3269.500000,-1272.250000,2075.250000
1730861138182,0.000000,0.000000,1.644800,0.000000,0.000000,0.241200,0.000000,0.000000,100.750000
1730861138284,106.624400,49.220400,52.967300,0.000000,0.000000,0.232900,0.000000,0.000000,0.000000
1730861138385,106.624400,49.220400,52.967300,0.000000,0.000000,0.000000,0.000000,0.000000,0.000000
1730861138484,106.624400,49.220400,52.967300,0.000000,0.000000,0.000000,0.000000,0.000000,0.000000
1730861138583,106.624400,49.220400,52.967300,0.000000,0.000000,0.000000,0.000000,0.000000,0.000000
1730861138684,106.624400,49.220400,52.967300,0.000000,0.000000,0.000000,0.000000,0.000000,0.000000
1730861138782,106.624400,49.220400,52.967300,0.000000,0.000000,0.000000,0.000000,0.000000,0.000000
1730861138883,106.624400,49.220400,52.967300,0.000000,0.000000,0.000000,0.000000,0.000000,0.000000
1730861138983,106.624400,49.220400,52.967300,0.000000,0.000000,0.000000,0.000000,0.000000,0.000000
1730861139082,106.624400,49.220400,52.967300,0.000000,0.000000,0.000000,0.000000,0.000000,0.000000
1730861139182,106.624400,49.220400,52.967300,0.000000,0.000000,0.000000,0.000000,0.000000,0.000000
1730861139282,106.624400,49.220400,52.967300,0.000000,0.000000,0.000000,0.000000,0.000000,0.000000
1730861139381,106.624400,49.220400,52.967300,0.000000,0.000000,0.000000,0.000000,0.000000,0.000000
1730861139480,106.624400,49.220400,52.967300,0.000000,0.000000,0.000000,0.000000,0.000000,0.000000
1730861139580,106.624400,49.220400,52.967300,0.000000,0.000000,0.000000,0.000000,0.000000,0.000000
1730861139681,106.624400,49.220400,52.967300,0.000000,0.000000,0.000000,0.000000,0.000000,0.000000
1730861139780,106.624400,49.220400,52.967300,0.000000,0.000000,0.000000,0.000000,0.000000,0.000000
1730861139880,106.624400,49.220400,52.967300,0.000000,0.000000,0.000000,0.000000,0.000000,0.000000
1730861139979,106.624400,49.220400,52.967300,0.000000,0.000000,0.000000,0.000000,0.000000,0.000000
1730861140078,106.624400,49.220400,52.967300,0.000000,0.000000,0.000000,0.000000,0.000000,0.000000
1730861140179,106.624400,49.220400,52.967300,0.000000,0.000000,0.000000,0.000000,0.000000,0.000000
1730861140279,106.624400,49.220400,52.967300,0.000000,0.000000,0.000000,0.000000,0.000000,0.000000
1730861140379,106.624400,49.220400,52.967300,0.000000,0.000000,0.000000,0.000000,0.000000,0.000000
1730861140478,106.624400,49.220400,52.967300,0.000000,0.000000,0.000000,0.000000,0.000000,0.000000
1730861140577,106.624400,49.220400,52.967300,0.000000,0.000000,0.000000,0.000000,0.000000,0.000000
1730861140678,106.624400,49.220400,52.967300,0.000000,0.000000,0.000000,0.000000,0.000000,0.000000
1730861140776,106.624400,49.220400,52.967300,0.000000,0.000000,0.000000,0.000000,0.000000,0.000000
1730861140877,106.624400,49.220400,52.967300,0.000000,0.000000,0.000000,0.000000,0.000000,0.000000
1730861140977,106.624400,49.220400,52.967300,0.000000,0.000000,0.000000,0.000000,0.000000,0.000000
1730861141076,106.624400,49.220400,52.967300,0.000000,0.000000,0.000000,0.000000,0.000000,0.000000
1730861141176,106.624400,49.220400,52.967300,0.000000,0.000000,0.000000,0.000000,0.000000,0.000000
1730861141276,106.624400,49.220400,52.967300,0.000000,0.000000,0.000000,0.000000,0.000000,0.000000
1730861141376,106.624400,49.220400,52.967300,0.000000,0.000000,0.000000,0.000000,0.000000,0.000000
1730861141475,106.624400,49.220400,52.967300,0.000000,0.000000,0.000000,0.000000,0.000000,0.000000
1730861141575,106.624400,49.220400,52.967300,0.000000,0.000000,0.000000,0.000000,0.000000,0.000000
1730861141674,106.624400,49.220400,52.967300,0.000000,0.000000,0.000000,0.000000,0.000000,0.000000
1730861141774,106.624400,49.220400,52.967300,0.000000,0.000000,0.000000,0.000000,0.000000,0.000000
1730861141874,106.624400,49.220400,52.967300,0.000000,0.000000,0.000000,0.000000,0.000000,0.000000
1730861141974,106.624400,49.220400,52.967300,0.000000,0.000000,0.000000,0.000000,0.000000,0.000000
1730861142074,106.624400,49.220400,52.967300,0.000000,0.000000,0.000000,0.000000,0.000000,0.000000
1730861142173,106.624400,49.220400,52.967300,0.000000,0.000000,0.000000,0.000000,0.000000,0.000000
1730861142273,106.624400,49.220400,52.967300,0.000000,0.000000,0.000000,0.000000,0.000000,0.000000
1730861142373,106.624400,49.220400,52.967300,0.000000,0.000000,0.000000,0.000000,0.000000,0.000000
1730861142472,106.624400,49.220400,52.967300,0.000000,0.000000,0.000000,0.000000,0.000000,0.000000
1730861142572,106.624400,49.220400,52.967300,0.000000,0.000000,0.000000,0.000000,0.000000,0.000000
1730861142672,106.624400,49.220400,52.967300,0.000000,0.000000,0.000000,0.000000,0.000000,0.000000
1730861142772,106.624400,49.220400,52.967300,0.000000,0.000000,0.000000,0.000000,0.000000,0.000000
1730861142870,106.624400,49.220400,52.967300,0.000000,0.000000,0.000000,0.000000,0.000000,0.000000
1730861142970,106.624400,49.220400,52.967300,0.000000,0.000000,0.000000,0.000000,0.000000,0.000000
1730861143071,106.624400,49.220400,52.967300,0.000000,0.000000,0.000000,0.000000,0.000000,0.000000
1730861143169,106.624400,49.220400,52.967300,0.000000,0.000000,0.000000,0.000000,0.000000,0.000000
1730861143270,106.624400,49.220400,52.967300,0.000000,0.000000,0.000000,0.000000,0.000000,0.000000
1730861143370,106.624400,49.220400,52.967300,0.000000,0.000000,0.000000,0.000000,0.000000,0.000000
1730861143469,106.624400,49.220400,52.967300,0.000000,0.000000,0.000000,0.000000,0.000000,0.000000
1730861143569,106.624400,49.220400,52.967300,0.000000,0.000000,0.000000,0.000000,0.000000,0.000000
1730861143669,106.624400,49.220400,52.967300,0.000000,0.000000,0.000000,0.000000,0.000000,0.000000
1730861143768,106.624400,49.220400,52.967300,0.000000,0.000000,0.000000,0.000000,0.000000,0.000000
1730861143868,106.624400,49.220400,52.967300,0.000000,0.000000,0.000000,0.000000,0.000000,0.000000
1730861143968,106.624400,49.220400,52.967300,0.000000,0.000000,0.000000,0.000000,0.000000,0.000000
1730861144067,106.624400,49.220400,52.967300,0.000000,0.000000,0.000000,0.000000,0.000000,0.000000
1730861144168,106.624400,49.220400,52.967300,0.000000,0.000000,0.000000,0.000000,0.000000,0.000000
1730861144267,106.624400,49.220400,52.967300,0.000000,0.000000,0.000000,0.000000,0.000000,0.000000
1730861144367,106.624400,49.220400,52.967300,0.000000,0.000000,0.000000,0.000000,0.000000,0.000000
1730861144467,106.624400,49.220400,52.967300,0.000000,0.000000,0.000000,0.000000,0.000000,0.000000
1730861144567,106.624400,49.220400,52.967300,0.000000,0.000000,0.000000,0.000000,0.000000,0.000000
1730861144666,106.624400,49.220400,52.967300,0.000000,0.000000,0.000000,0.000000,0.000000,0.000000
1730861144766,106.624400,49.220400,52.967300,0.000000,0.000000,0.000000,0.000000,0.000000,0.000000
1730861144866,106.624400,49.220400,52.967300,0.000000,0.000000,0.000000,0.000000,0.000000,0.000000
1730861144965,106.624400,49.220400,52.967300,0.000000,0.000000,0.000000,0.000000,0.000000,0.000000
1730861145065,106.624400,49.220400,52.967300,0.000000,0.000000,0.000000,0.000000,0.000000,0.000000
1730861145165,106.624400,49.220400,52.967300,0.000000,0.000000,0.000000,0.000000,0.000000,0.000000
1730861145264,106.624400,49.220400,52.967300,0.000000,0.000000,0.000000,0.000000,0.000000,0.000000
1730861145364,106.624400,49.220400,52.967300,0.000000,0.000000,0.000000,0.000000,0.000000,0.000000
1730861145464,106.624400,49.220400,52.967300,0.000000,0.000000,0.000000,0.000000,0.000000,0.000000
1730861145564,106.624400,49.220400,52.967300,0.000000,0.000000,0.000000,0.000000,0.000000,0.000000
1730861145663,106.624400,49.220400,52.967300,0.000000,0.000000,0.000000,0.000000,0.000000,0.000000
1730861145763,106.624400,49.220400,52.967300,0.000000,0.000000,0.000000,0.000000,0.000000,0.000000
1730861145863,106.624400,49.220400,52.967300,0.000000,0.000000,0.000000,0.000000,0.000000,0.000000
1730861145962,106.624400,49.220400,52.967300,0.000000,0.000000,0.000000,0.000000,0.000000,0.000000
1730861146062,106.624400,49.220400,52.967300,0.000000,0.000000,0.000000,0.000000,0.000000,0.000000
1730861146162,106.624400,49.220400,52.967300,0.000000,0.000000,0.000000,0.000000,0.000000,0.000000
1730861146261,106.624400,49.220400,52.967300,0.000000,0.000000,0.000000,0.000000,0.000000,0.000000
1730861146361,106.624400,49.220400,52.967300,0.000000,0.000000,0.000000,0.000000,0.000000,0.000000
1730861146461,106.624400,49.220400,52.967300,0.000000,0.000000,0.000000,0.000000,0.000000,0.000000
1730861146560,106.624400,49.220400,52.967300,0.000000,0.000000,0.000000,0.000000,0.000000,0.000000
1730861146659,106.624400,49.220400,52.967300,0.000000,0.000000,0.000000,0.000000,0.000000,0.000000
1730861146760,106.624400,49.220400,52.967300,0.000000,0.000000,0.000000,0.000000,0.000000,0.000000
1730861146860,106.624400,49.220400,52.967300,0.000000,0.000000,0.000000,0.000000,0.000000,0.000000
1730861146958,106.624400,49.220400,52.967300,0.000000,0.000000,0.000000,0.000000,0.000000,0.000000
1730861147058,106.624400,49.220400,52.967300,0.000000,0.000000,0.000000,0.000000,0.000000,0.000000
1730861147159,106.624400,49.220400,52.967300,0.000000,0.000000,0.000000,0.000000,0.000000,0.000000
1730861147257,106.624400,49.220400,52.967300,0.000000,0.000000,0.000000,0.000000,0.000000,0.000000
1730861147358,106.624400,49.220400,52.967300,0.000000,0.000000,0.000000,0.000000,0.000000,0.000000
1730861147457,106.624400,49.220400,52.967300,0.000000,0.000000,0.000000,0.000000,0.000000,0.000000
1730861147557,106.624400,49.220400,52.967300,0.000000,0.000000,0.000000,0.000000,0.000000,0.000000
1730861147657,106.624400,49.220400,52.967300,0.000000,0.000000,0.000000,0.000000,0.000000,0.000000
1730861147757,106.624400,49.220400,52.967300,0.000000,0.000000,0.000000,0.000000,0.000000,0.000000
1730861147857,106.624400,49.220400,52.967300,0.000000,0.000000,0.000000,0.000000,0.000000,0.000000
1730861147956,106.624400,49.220400,52.967300,0.000000,0.000000,0.000000,0.000000,0.000000,0.000000
1730861148056,106.624400,49.220400,52.967300,0.000000,0.000000,0.000000,0.000000,0.000000,0.000000
1730861148156,106.624400,49.220400,52.967300,0.000000,0.000000,0.000000,0.000000,0.000000,0.000000
1730861148255,106.624400,49.220400,52.967300,0.000000,0.000000,0.000000,0.000000,0.000000,0.000000
1730861148355,106.624400,49.220400,52.967300,0.000000,0.000000,0.000000,0.000000,0.000000,0.000000
1730861148455,106.624400,49.220400,52.967300,0.000000,0.000000,0.000000,0.000000,0.000000,0.000000
1730861148553,106.624400,49.220400,52.967300,0.000000,0.000000,0.000000,0.000000,0.000000,0.000000
1730861148654,106.624400,49.220400,52.967300,0.000000,0.000000,0.000000,0.000000,0.000000,0.000000
1730861148754,106.624400,49.220400,52.967300,0.000000,0.000000,0.000000,0.000000,0.000000,0.000000
1730861148854,106.624400,49.220400,52.967300,0.000000,0.000000,0.000000,0.000000,0.000000,0.000000
1730861148953,106.624400,49.220400,52.967300,0.000000,0.000000,0.000000,0.000000,0.000000,0.000000
1730861149053,106.624400,49.220400,52.967300,0.000000,0.000000,0.000000,0.000000,0.000000,0.000000
1730861149153,106.624400,49.220400,52.967300,0.000000,0.000000,0.000000,0.000000,0.000000,0.000000
1730861149252,106.624400,49.220400,52.967300,0.000000,0.000000,0.000000,0.000000,0.000000,0.000000
1730861149352,106.624400,49.220400,52.967300,0.000000,0.000000,0.000000,0.000000,0.000000,0.000000
1730861149452,106.624400,49.220400,52.967300,0.000000,0.000000,0.000000,0.000000,0.000000,0.000000
1730861149552,106.624400,49.220400,52.967300,0.000000,0.000000,0.000000,0.000000,0.000000,0.000000
1730861149651,106.624400,49.220400,52.967300,0.000000,0.000000,0.000000,0.000000,0.000000,0.000000
1730861149750,106.624400,49.220400,52.967300,0.000000,0.000000,0.000000,0.000000,0.000000,0.000000
1730861149850,106.624400,49.220400,52.967300,0.000000,0.000000,0.000000,0.000000,0.000000,0.000000
1730861149949,106.624400,49.220400,52.967300,0.000000,0.000000,0.000000,0.000000,0.000000,0.000000
1730861150050,106.624400,49.220400,52.967300,0.000000,0.000000,0.000000,0.000000,0.000000,0.000000
1730861150150,106.624400,49.220400,52.967300,0.000000,0.000000,0.000000,0.000000,0.000000,0.000000
1730861150250,106.624400,49.220400,52.967300,0.000000,0.000000,0.000000,0.000000,0.000000,0.000000
1730861150348,106.624400,49.220400,52.967300,0.000000,0.000000,0.000000,0.000000,0.000000,0.000000
1730861150448,106.624400,49.220400,52.967300,0.000000,0.000000,0.000000,0.000000,0.000000,0.000000
1730861150549,106.624400,49.220400,52.967300,0.000000,0.000000,0.000000,0.000000,0.000000,0.000000
1730861150648,106.624400,49.220400,52.967300,0.000000,0.000000,0.000000,0.000000,0.000000,0.000000
1730861150748,106.624400,49.220400,52.967300,0.000000,0.000000,0.000000,0.000000,0.000000,0.000000
1730861150848,106.624400,49.220400,52.967300,0.000000,0.000000,0.000000,0.000000,0.000000,0.000000
1730861150947,106.624400,49.220400,52.967300,0.000000,0.000000,0.000000,0.000000,0.000000,0.000000
1730861151047,106.624400,49.220400,52.967300,0.000000,0.000000,0.000000,0.000000,0.000000,0.000000
1730861151147,106.624400,49.220400,52.967300,0.000000,0.000000,0.000000,0.000000,0.000000,0.000000
1730861151247,106.624400,49.220400,52.967300,0.000000,0.000000,0.000000,0.000000,0.000000,0.000000
1730861151346,106.624400,49.220400,52.967300,0.000000,0.000000,0.000000,0.000000,0.000000,0.000000
1730861151446,106.624400,49.220400,52.967300,0.000000,0.000000,0.000000,0.000000,0.000000,0.000000
1730861151546,106.624400,49.220400,52.967300,0.000000,0.000000,0.000000,0.000000,0.000000,0.000000
1730861151645,106.624400,49.220400,52.967300,0.000000,0.000000,0.000000,0.000000,0.000000,0.000000
1730861151745,106.624400,49.220400,52.967300,0.000000,0.000000,0.000000,0.000000,0.000000,0.000000
1730861151845,106.624400,49.220400,52.967300,0.000000,0.000000,0.000000,0.000000,0.000000,0.000000
1730861151944,106.624400,49.220400,52.967300,0.000000,0.000000,0.000000,0.000000,0.000000,0.000000
1730861152043,106.624400,49.220400,52.967300,0.000000,0.000000,0.000000,0.000000,0.000000,0.000000
1730861152144,106.624400,49.220400,52.967300,0.000000,0.000000,0.000000,0.000000,0.000000,0.000000
1730861152244,106.624400,49.220400,52.967300,0.000000,0.000000,0.000000,0.000000,0.000000,0.000000
1730861152343,106.624400,49.220400,52.967300,0.000000,0.000000,0.000000,0.000000,0.000000,0.000000
1730861152443,106.624400,49.220400,52.967300,0.000000,0.000000,0.000000,0.000000,0.000000,0.000000
1730861152543,106.624400,49.220400,52.967300,0.000000,0.000000,0.000000,0.000000,0.000000,0.000000
1730861152642,106.624400,49.220400,52.967300,0.000000,0.000000,0.000000,0.000000,0.000000,0.000000
1730861152742,106.624400,49.220400,52.967300,0.000000,0.000000,0.000000,0.000000,0.000000,0.000000
1730861152842,106.624400,49.220400,52.967300,0.000000,0.000000,0.000000,0.000000,0.000000,0.000000
1730861152942,106.624400,49.220400,52.967300,0.000000,0.000000,0.000000,0.000000,0.000000,0.000000
1730861153040,106.624400,49.220400,52.967300,0.000000,0.000000,0.000000,0.000000,0.000000,0.000000
1730861153140,106.624400,49.220400,52.967300,0.000000,0.000000,0.000000,0.000000,0.000000,0.000000
1730861153241,106.624400,49.220400,52.967300,0.000000,0.000000,0.000000,0.000000,0.000000,0.000000
1730861153340,106.624400,49.220400,52.967300,0.000000,0.000000,0.000000,0.000000,0.000000,0.000000
1730861153440,106.624400,49.220400,52.967300,0.000000,0.000000,0.000000,0.000000,0.000000,0.000000
1730861153540,106.624400,49.220400,52.967300,0.000000,0.000000,0.000000,0.000000,0.000000,0.000000
1730861153640,106.624400,49.220400,52.967300,0.000000,0.000000,0.000000,0.000000,0.000000,0.000000
1730861153738,106.624400,49.220400,52.967300,0.000000,0.000000,0.000000,0.000000,0.000000,0.000000
1730861153839,106.624400,49.220400,52.967300,0.000000,0.000000,0.000000,0.000000,0.000000,0.000000
1730861153938,106.624400,49.220400,52.967300,0.000000,0.000000,0.000000,0.000000,0.000000,0.000000
1730861154037,106.624400,49.220400,52.967300,0.000000,0.000000,0.000000,0.000000,0.000000,0.000000
1730861154137,106.624400,49.220400,52.967300,0.000000,0.000000,0.000000,0.000000,0.000000,0.000000
1730861154238,106.624400,49.220400,52.967300,0.000000,0.000000,0.000000,0.000000,0.000000,0.000000
1730861154337,106.624400,49.220400,52.967300,0.000000,0.000000,0.000000,0.000000,0.000000,0.000000
1730861154437,106.624400,49.220400,52.967300,0.000000,0.000000,0.000000,0.000000,0.000000,0.000000
1730861154537,106.624400,49.220400,52.967300,0.000000,0.000000,0.000000,0.000000,0.000000,0.000000
1730861154637,106.624400,49.220400,52.967300,0.000000,0.000000,0.000000,0.000000,0.000000,0.000000
1730861154736,106.624400,49.220400,52.967300,0.000000,0.000000,0.000000,0.000000,0.000000,0.000000
1730861154836,106.624400,49.220400,52.967300,0.000000,0.000000,0.000000,0.000000,0.000000,0.000000
1730861154936,106.624400,49.220400,52.967300,0.000000,0.000000,0.000000,0.000000,0.000000,0.000000
1730861155036,106.624400,49.220400,52.967300,0.000000,0.000000,0.000000,0.000000,0.000000,0.000000
1730861155135,106.624400,49.220400,52.967300,0.000000,0.000000,0.000000,0.000000,0.000000,0.000000
1730861155235,106.624400,49.220400,52.967300,0.000000,0.000000,0.000000,0.000000,0.000000,0.000000
1730861155335,106.624400,49.220400,52.967300,0.000000,0.000000,0.000000,0.000000,0.000000,0.000000
1730861155434,106.624400,49.220400,52.967300,0.000000,0.000000,0.000000,0.000000,0.000000,0.000000
1730861155534,106.624400,49.220400,52.967300,0.000000,0.000000,0.000000,0.000000,0.000000,0.000000
1730861155634,106.624400,49.220400,52.967300,0.000000,0.000000,0.000000,0.000000,0.000000,0.000000
1730861155733,106.624400,49.220400,52.967300,0.000000,0.000000,0.000000,0.000000,0.000000,0.000000
1730861155833,106.624400,49.220400,52.967300,0.000000,0.000000,0.000000,0.000000,0.000000,0.000000
1730861155933,106.624400,49.220400,52.967300,0.000000,0.000000,0.000000,0.000000,0.000000,0.000000
1730861156032,106.624400,49.220400,52.967300,0.000000,0.000000,0.000000,0.000000,0.000000,0.000000
1730861156132,106.624400,49.220400,52.967300,0.000000,0.000000,0.000000,0.000000,0.000000,0.000000
1730861156232,106.624400,49.220400,52.967300,0.000000,0.000000,0.000000,0.000000,0.000000,0.000000
1730861156332,106.624400,49.220400,52.967300,0.000000,0.000000,0.000000,0.000000,0.000000,0.000000
1730861156431,106.624400,49.220400,52.967300,0.000000,0.000000,0.000000,0.000000,0.000000,0.000000
1730861156530,106.624400,49.220400,52.967300,0.000000,0.000000,0.000000,0.000000,0.000000,0.000000
1730861156630,106.624400,49.220400,52.967300,0.000000,0.000000,0.000000,0.000000,0.000000,0.000000
1730861156731,106.624400,49.220400,52.967300,0.000000,0.000000,0.000000,0.000000,0.000000,0.000000
1730861156829,106.624400,49.220400,52.967300,0.000000,0.000000,0.000000,0.000000,0.000000,0.000000
1730861156929,106.624400,49.220400,52.967300,0.000000,0.000000,0.000000,0.000000,0.000000,0.000000
1730861157030,106.624400,49.220400,52.967300,0.000000,0.000000,0.000000,0.000000,0.000000,0.000000
1730861157129,106.624400,49.220400,52.967300,0.000000,0.000000,0.000000,0.000000,0.000000,0.000000
1730861157228,106.624400,49.220400,52.967300,0.000000,0.000000,0.000000,0.000000,0.000000,0.000000
1730861157329,106.624400,49.220400,52.967300,0.000000,0.000000,0.000000,0.000000,0.000000,0.000000
1730861157428,106.624400,49.220400,52.967300,0.000000,0.000000,0.000000,0.000000,0.000000,0.000000
1730861157527,106.624400,49.220400,52.967300,0.000000,0.000000,0.000000,0.000000,0.000000,0.000000
1730861157628,106.624400,49.220400,52.967300,0.000000,0.000000,0.000000,0.000000,0.000000,0.000000
1730861157727,106.624400,49.220400,52.967300,0.000000,0.000000,0.000000,0.000000,0.000000,0.000000
1730861157827,106.624400,49.220400,52.967300,0.000000,0.000000,0.000000,0.000000,0.000000,0.000000
1730861157927,106.624400,49.220400,52.967300,0.000000,0.000000,0.000000,0.000000,0.000000,0.000000
