timestamp,Gyro_x,Gyro_y,Gyro_z,Accel_x,Accel_y,Accel_z,Mag_x,Mag_y,Mag_z
1730861236175,-2.391800,0.506100,0.963200,0.283800,0.181400,9.736300,-118.500000,75.750000,4065.250000
1730861236275,-2.318300,0.469300,0.934600,0.281400,0.163400,9.681200,-117.500000,68.250000,4042.250000
1730861236374,-2.302000,0.436700,0.926500,0.262200,0.158000,9.651300,-112.750000,64.750000,4040.000000
1730861236474,-2.330600,0.432600,0.930600,0.274800,0.152600,9.668600,-114.750000,63.750000,4037.000000
1730861236574,-2.342800,0.383600,0.951000,0.277800,0.168200,9.680000,-116.000000,70.250000,4041.750000
1730861236672,-2.269300,0.371400,0.934600,0.267000,0.158600,9.665100,-111.500000,66.250000,4035.500000
1730861236773,-2.379500,0.457100,-1.000000,0.250800,0.129300,9.659700,-109.750000,63.500000,4042.000000
1730861236873,-2.322400,0.485700,0.922400,0.279600,0.146600,9.663300,-116.750000,61.250000,4034.750000
1730861236973,-2.253000,0.408100,0.918300,0.268200,0.164600,9.685400,-112.000000,68.750000,4044.000000
1730861237072,-2.073400,0.151000,0.983600,0.251400,0.116700,9.607000,-105.000000,48.750000,4011.250000
1730861237171,-2.346900,0.477500,0.914200,0.257400,0.141300,9.639300,-93.000000,57.250000,4024.750000
1730861237271,-2.265300,0.465300,0.934600,0.254400,0.119700,9.661500,-106.250000,50.000000,4034.000000
1730861237371,-2.379500,0.506100,0.906100,0.241800,0.123300,9.657900,-101.000000,51.500000,4032.500000
1730861237471,-2.465300,0.526500,0.963200,0.255600,0.130500,9.653700,-106.750000,54.500000,4030.750000
1730861237570,-2.375500,0.493800,0.926500,0.234700,0.134700,9.656700,-98.000000,56.250000,4032.000000
1730861237669,-2.400000,0.506100,0.942800,0.249000,0.129900,9.660300,-104.000000,55.500000,4036.500000
1730861237769,-2.775500,0.142800,0.991800,0.196900,0.199900,9.651900,-82.250000,83.500000,4030.000000
1730861237870,-2.383600,0.530600,0.955100,0.234700,0.134100,9.683000,-98.000000,56.000000,4043.000000
1730861237969,-2.167300,0.685700,0.934600,0.249000,0.131700,9.664500,-104.000000,55.000000,4035.250000
1730861238068,-2.477500,0.453000,0.771400,0.258600,0.156800,9.668000,-106.000000,81.500000,4037.000000
1730861238168,-2.424400,0.489700,0.975500,0.245400,0.140700,9.670400,-102.500000,58.750000,4037.750000
1730861238268,-2.485700,0.404000,0.681600,0.221500,0.173000,9.646500,-92.500000,72.250000,4027.750000
1730861238368,-2.420400,0.510200,0.971400,0.228700,0.138300,9.653100,-95.500000,57.750000,4030.500000
1730861238467,-2.448900,0.522400,0.493800,0.235300,0.162200,9.693200,-83.250000,1.250000,4032.500000
1730861238568,-2.334600,0.424400,0.191800,0.228100,0.085600,9.664500,-95.250000,35.750000,4035.250000
1730861238667,-2.440800,0.489700,0.481600,0.240100,0.151400,9.679400,-100.250000,63.250000,4041.500000
1730861238767,-2.363200,0.534600,0.938700,0.271200,0.144200,9.674600,-113.250000,60.250000,4039.500000
1730861238867,-2.481600,0.534600,0.955100,0.257400,0.146000,9.675200,-102.750000,60.750000,4039.750000
1730861238967,-2.383600,0.416300,0.971400,0.241800,0.140100,9.666200,-101.000000,58.500000,4036.000000
1730861239066,-2.400000,0.502000,0.918300,0.229300,0.132300,9.679400,-95.750000,55.250000,4041.500000
1730861239166,-2.400000,0.493800,0.028500,0.226300,0.160400,9.680600,-94.500000,67.000000,4042.000000
1730861239266,-2.334600,0.518300,0.910200,0.225700,0.131100,9.648900,-94.250000,54.750000,4028.750000
1730861239365,-2.269300,0.408100,-1.787700,0.250200,0.138300,9.656700,-104.500000,63.000000,4041.000000
1730861239465,-2.534600,0.432600,-3.918300,0.932800,0.025100,9.828500,-389.500000,10.500000,4103.750000
1730861239565,-2.453000,0.522400,0.959100,0.227500,0.126300,9.670400,-95.000000,52.750000,4037.750000
1730861239664,-2.371400,0.453000,0.926500,0.217300,0.161600,9.652500,-90.750000,67.500000,4030.250000
1730861239764,-2.367300,0.363200,0.951000,0.079600,0.005900,9.581800,-139.750000,54.000000,3985.500000
1730861239864,0.126500,-1.889700,-2.710200,0.128700,0.199300,9.914100,-53.750000,83.250000,4139.500000
1730861239964,-4.836700,0.575500,-2.032600,0.250800,0.279600,9.699200,-104.750000,-116.750000,4049.750000
1730861240063,-2.367300,0.583600,0.375500,0.288500,0.155600,9.686600,-120.500000,65.000000,4044.500000
1730861240163,-2.448900,0.546900,0.763200,0.276600,0.091600,9.669800,-77.000000,26.000000,4036.000000
1730861240263,-2.420400,0.575500,0.983600,0.259200,0.147800,9.672200,-108.250000,61.750000,4038.500000
1730861240361,-2.383600,0.510200,0.991800,0.250800,0.154400,9.663300,-104.750000,64.500000,4034.750000
1730861240462,-2.371400,0.595900,0.334600,0.392700,0.176000,9.671000,-164.000000,73.500000,4038.000000
1730861240561,-2.265300,0.918300,-2.281600,0.194500,0.068800,9.688400,-85.750000,35.500000,4039.500000
1730861240661,0.555100,-1.457100,1.432600,0.220300,0.156200,9.653100,-92.000000,65.250000,4030.500000
1730861240761,0.991800,-1.857100,2.473400,0.282600,0.002900,9.715900,-118.000000,-1.250000,4056.750000
1730861240860,2.269300,-6.710200,3.342800,-1.139400,0.328700,9.759700,-475.750000,137.250000,4075.000000
1730861240961,5.102000,-9.318300,1.024400,0.396900,0.380200,10.254800,-165.750000,-158.750000,4281.750000
1730861241061,7.122400,-12.277500,1.265300,-1.510000,0.781900,9.964400,-630.500000,-326.500000,4170.750000
1730861241160,4.930600,-15.265300,0.432600,-1.784800,-1.219000,10.266800,-745.250000,-509.000000,4286.750000
1730861241259,0.685700,-17.208100,-2.195900,-1.838700,-1.172300,9.541700,-767.750000,-489.500000,3984.000000
1730861241360,11.024400,-23.440800,0.440800,-2.283000,-1.277100,8.785500,-953.250000,-533.250000,3668.250000
1730861241460,18.677500,-20.555100,7.159100,-3.591900,-2.339300,9.178300,-1570.750000,-1048.000000,3794.500000
1730861241558,19.906100,-22.326500,6.400000,-3.784100,-3.036200,8.713000,-1580.000000,-1267.750000,3638.000000
1730861241658,22.922400,-19.367300,6.881600,-5.246800,-3.609800,7.031700,-2190.750000,-1507.250000,2936.000000
1730861241759,17.510200,-20.126500,6.853000,-5.207900,-4.320600,6.860500,-2174.500000,-1804.000000,2864.500000
1730861241858,13.702000,-18.289700,7.171400,-4.789400,-5.034300,6.013800,-2018.750000,-2042.250000,2410.000000
1730861241957,7.693800,-7.804000,6.146900,-5.470800,-5.112700,5.090000,-2284.250000,-2134.750000,2125.250000
1730861242058,8.159100,5.918300,11.159100,-5.811500,-6.518600,5.428300,-2426.500000,-2721.750000,2266.500000
1730861242157,2.191800,16.110200,5.914200,-5.057600,-6.647900,5.953400,-2111.750000,-2775.750000,2485.750000
1730861242257,-12.546900,21.318300,1.755100,-4.514000,-6.512600,5.792300,-1774.750000,-2639.750000,2428.000000
1730861242357,-13.644800,13.253000,-5.330600,-4.173900,-6.014400,6.386900,-1742.750000,-2511.250000,2666.750000
1730861242457,-19.959100,14.632600,-3.869300,-3.844600,-5.567200,6.776700,-1605.250000,-2324.500000,2829.500000
1730861242555,-15.653000,20.208100,5.861200,-3.362000,-5.237300,7.591600,-1403.750000,-2186.750000,3169.750000
1730861242656,-18.130600,9.930600,-2.885700,-3.562500,-4.907300,8.461600,-1487.500000,-2049.000000,3533.000000
1730861242756,-22.889700,14.040800,-6.326500,-3.396100,-4.520000,9.060900,-1418.000000,-1937.250000,3733.500000
1730861242856,-23.195900,7.579500,-8.583600,-1.881800,-3.076400,8.684900,-785.750000,-1284.500000,3626.250000
1730861242955,-22.616300,13.453000,-4.995900,-2.066900,-2.643500,9.235100,-863.000000,-1103.750000,3856.000000
1730861243055,-26.697900,11.416300,-6.795900,-1.404000,-1.507600,9.851900,-586.250000,-629.500000,4113.500000
1730861243153,-19.314200,6.359100,-7.995900,-1.830900,0.541800,9.408200,-651.500000,-297.250000,3979.250000
1730861243254,-22.906100,7.391800,0.563200,-1.135200,0.430500,10.354800,-474.000000,-179.750000,4323.500000
1730861243354,-19.220400,2.285700,-4.926500,-1.233400,0.249600,10.227300,-515.000000,104.250000,4270.250000
1730861243453,-35.689700,5.175500,-8.967300,0.707100,0.706500,9.837500,-295.250000,295.000000,4107.500000
1730861243553,-34.538700,14.012200,-5.322400,-1.288500,2.745200,8.240600,-583.000000,1163.750000,3459.500000
1730861243653,-24.159100,15.081600,-1.763200,1.231000,3.165000,8.650800,514.000000,1321.500000,3612.000000
1730861243753,-6.681600,14.783600,2.648900,0.866900,4.116400,8.061000,362.000000,1718.750000,3365.750000
1730861243852,-13.824400,18.628500,5.273400,0.307100,3.998400,9.047100,-128.250000,1669.500000,3777.500000
1730861243952,-12.444800,16.718300,-1.134600,0.714900,4.761200,7.807700,326.500000,1987.000000,3260.000000
1730861244051,-3.126500,15.044800,2.142800,1.304000,4.636700,7.779600,544.500000,1936.000000,3248.250000
1730861244150,-3.318300,3.114200,-1.416300,1.765100,4.538500,7.957400,737.000000,1895.000000,3322.500000
1730861244251,0.314200,1.175500,-2.551000,2.123100,4.558300,8.347200,886.500000,1903.250000,3485.250000
1730861244351,-2.857100,0.457100,-1.530600,1.712400,4.784600,8.023900,715.000000,1997.750000,3350.250000
1730861244450,0.726500,-1.522400,-2.685700,2.201000,4.546900,8.144800,899.000000,1888.750000,3417.750000
1730861244549,6.710200,-16.257100,-8.134600,1.578900,4.262500,8.646000,659.250000,1779.750000,3610.000000
1730861244649,11.097900,-38.163200,-9.755100,0.727400,4.494800,8.160400,303.750000,1876.750000,3407.250000
1730861244750,3.987700,-37.885700,-6.493800,0.310700,3.246400,9.886600,129.750000,1355.500000,4128.000000
1730861244848,3.244800,-33.134600,-6.216300,0.758000,3.485900,8.674100,-315.750000,1431.500000,3662.750000
1730861244949,8.889700,-32.559100,0.289700,-1.439400,3.029600,8.960900,-601.000000,1265.000000,3741.500000
1730861245048,5.269300,-41.514200,0.930600,-2.883000,2.985900,8.163400,-1203.750000,1246.750000,3408.500000
1730861245149,35.848900,-49.881600,3.987700,-6.395800,2.030300,7.945400,-2670.500000,847.750000,3317.500000
1730861245248,0.334600,-39.130600,1.240800,-6.259900,0.830400,8.982500,-2665.250000,396.250000,3623.000000
1730861245347,0.269300,-45.420400,0.432600,-7.190400,2.168000,5.061200,-3002.250000,905.250000,2113.250000
1730861245447,6.865300,-46.195900,4.673400,-8.122100,0.516700,5.769000,-3391.250000,215.750000,2408.750000
1730861245546,2.016300,-49.330600,5.310200,-9.387200,0.372400,3.955300,-3919.500000,155.500000,1651.500000
1730861245647,-2.093800,-47.726500,3.395900,-10.051200,1.040600,1.985400,-4365.500000,434.000000,829.000000
1730861245747,-4.244800,-30.881600,-9.216300,-11.688200,0.583700,1.352500,-4880.250000,243.750000,564.750000
1730861245847,-10.228500,-22.175500,-11.595900,-10.271000,0.694500,0.344800,-4288.500000,290.000000,144.000000
1730861245947,-15.232600,-21.783600,-9.261200,-10.054200,0.889100,0.153200,-4198.000000,371.250000,-64.000000
1730861246046,-14.583600,-19.497900,-4.342800,-9.451900,1.413600,-1.835100,-3946.500000,590.250000,-766.250000
1730861246146,-8.334600,-19.155100,-3.297900,-10.349400,1.378300,-2.198600,-4328.250000,561.250000,-887.500000
1730861246246,-16.632600,-15.461200,-11.016300,-9.375300,1.565700,-2.819500,-3914.500000,653.750000,-1177.250000
1730861246346,-11.236700,-11.669300,-7.118300,-9.848300,1.705200,-3.883500,-4112.000000,712.000000,-1621.500000
1730861246445,-9.244800,-9.530600,-10.938700,-9.280700,1.778300,-3.991300,-3875.000000,742.500000,-1666.500000
1730861246545,-10.089700,-6.273400,-10.946900,-8.644200,1.937500,-4.213400,-3562.250000,834.500000,-1838.250000
1730861246645,-11.212200,-3.677500,-10.889700,-8.414300,2.032700,-4.060700,-3513.250000,848.750000,-1695.500000
1730861246744,-15.583600,-7.959100,-9.387700,-8.219100,2.059700,-4.770800,-3431.750000,860.000000,-1992.000000
1730861246844,-11.461200,-10.481600,-2.444800,-8.631600,2.102800,-5.410300,-3604.000000,878.000000,-2259.000000
1730861246944,-11.106100,-7.179500,-3.044800,-8.148400,2.004600,-5.583300,-3368.250000,820.000000,-2339.500000
1730861247043,-12.677500,-6.489700,-1.946900,-7.313700,1.895600,-5.770200,-3053.750000,791.500000,-2409.250000
1730861247143,-10.975500,-6.224400,0.612200,-7.838300,1.667500,-5.719300,-3272.750000,696.250000,-2388.000000
1730861247242,-6.371400,0.269300,0.151000,-8.114300,1.420800,-6.543100,-3388.000000,593.250000,-2732.000000
1730861247342,-6.199900,11.657100,4.522400,-7.230500,1.622000,-6.915000,-3120.500000,677.250000,-2887.250000
1730861247442,-1.600000,10.040800,-2.665300,-7.601700,1.224400,-5.740200,-3174.000000,511.250000,-2460.750000
1730861247542,7.726500,16.159100,0.318300,-8.705200,1.330400,-5.686300,-3634.750000,555.500000,-2374.250000
1730861247641,10.375500,17.061200,0.114200,-8.619600,1.452500,-4.045100,-3599.000000,606.500000,-1689.000000
1730861247740,13.518300,24.236700,-2.236700,-8.878900,1.362700,-3.541000,-3707.250000,569.000000,-1478.500000
1730861247840,13.608100,40.432600,6.897900,-9.443500,1.454300,-2.279400,-3897.750000,591.000000,-888.000000
1730861247940,10.289700,27.338700,6.526500,-9.996200,1.396200,-1.234000,-4173.750000,583.000000,-515.250000
1730861248039,12.963200,29.710200,8.877500,-9.973400,1.292700,0.470000,-4164.250000,539.750000,196.250000
1730861248140,15.351000,39.526500,9.542800,-10.354200,0.783700,1.712400,-4323.250000,327.250000,715.000000
1730861248238,5.497900,39.730600,1.575500,-10.619500,0.373600,3.234400,-4339.250000,145.000000,1384.750000
1730861248339,-5.073400,47.167300,-2.804000,-9.724900,0.764000,3.935600,-4060.500000,319.000000,1643.250000
1730861248438,4.824400,52.922400,4.661200,-7.438900,0.422100,6.662300,-3106.000000,176.250000,2781.750000
1730861248537,2.485700,44.881600,4.175500,-6.296500,0.007100,7.489200,-2629.000000,-3.000000,3127.000000
1730861248638,0.563200,30.763200,6.293800,-5.927000,0.312500,8.186100,-2406.250000,-118.500000,3483.250000
1730861248738,4.351000,28.775500,9.551000,-4.625300,0.608900,8.669900,-1931.250000,-254.250000,3620.000000
1730861248838,0.722400,27.187700,9.371400,-4.694200,0.392100,8.913600,-1960.000000,-163.750000,3721.750000
1730861248938,-18.485700,29.028500,-2.714200,-1.546500,0.443000,9.489600,-645.750000,-185.000000,3962.250000
1730861249037,-12.008100,31.710200,3.885700,-1.669900,0.368800,10.087800,-599.250000,-154.000000,4212.000000
1730861249136,-19.191800,38.820400,7.053000,0.317300,0.047300,9.641100,132.500000,19.750000,4025.500000
1730861249236,-12.616300,49.897900,12.885700,2.274000,1.048400,8.401700,949.500000,437.750000,3508.000000
1730861249336,-3.363200,42.910200,10.930600,1.100500,0.516700,9.581200,459.500000,215.750000,4000.500000
1730861249436,-4.436700,43.746900,4.938700,3.724200,1.023800,8.316700,1555.000000,427.500000,3472.500000
1730861249535,0.710200,41.081600,5.746900,3.820000,1.009500,8.792700,1602.000000,528.500000,3611.750000
1730861249635,0.828500,18.399900,-1.175500,6.173700,1.171700,7.076600,2577.750000,489.250000,2954.750000
1730861249735,1.563200,14.612200,-2.000000,6.553900,0.720300,7.235300,2736.500000,300.750000,3021.000000
1730861249835,-5.220400,2.632600,-1.306100,6.610200,1.000500,6.282100,2760.000000,417.750000,2623.000000
1730861249934,4.330600,-17.669300,-4.844800,6.832300,1.154900,6.941300,2882.250000,333.000000,2995.250000
1730861250034,-3.889700,-30.591800,-9.224400,5.439000,0.628000,7.498200,2271.000000,262.250000,3130.750000
1730861250134,-1.346900,-38.404000,-10.489700,4.558900,0.777700,7.611900,1903.500000,324.750000,3178.250000
1730861250234,7.518300,-54.183600,-14.832600,3.403300,0.290300,9.230400,1421.000000,121.250000,3854.000000
1730861250333,2.020400,-52.044800,-14.918300,1.873500,0.256800,9.943500,769.250000,-94.250000,4107.500000
1730861250433,0.604000,-50.844800,-10.138700,1.075900,0.765200,10.182400,449.250000,-319.500000,4251.500000
1730861250533,3.391800,-37.485700,-2.808100,-2.862000,0.033500,8.851900,-1195.000000,14.000000,3696.000000
1730861250633,2.163200,-36.620400,-6.273400,-3.532600,0.586100,9.226200,-1475.000000,-244.750000,3852.250000
1730861250731,-3.946900,-12.534600,-4.355100,-4.363100,0.790900,9.414800,-1833.000000,-330.250000,3931.000000
1730861250831,-22.440800,4.706100,-1.032600,-3.821200,0.510100,8.750200,-1595.500000,-213.000000,3525.500000
1730861250931,-9.673400,6.579500,-3.914200,-3.708600,1.038200,8.087900,-1548.500000,433.500000,3377.000000
1730861251030,-9.518300,8.093800,0.138700,-3.728400,0.483100,9.490200,-1556.750000,201.750000,3962.500000
1730861251131,-10.926500,2.608100,-3.644800,-3.316500,0.703500,8.898000,-1384.750000,293.750000,3715.250000
1730861251231,4.216300,3.910200,2.979500,-3.260200,0.107100,8.438200,-1223.750000,-173.250000,3602.250000
1730861251330,16.330600,0.893800,6.448900,-3.798500,0.142500,8.059200,-1586.000000,-59.500000,3365.000000
1730861251429,7.265300,2.179500,-5.840800,-4.490000,-1.109400,9.029200,-1874.750000,-463.250000,3770.000000
1730861251529,17.710200,3.126500,2.518300,-3.023700,0.812500,8.403500,-1262.500000,-339.250000,3508.750000
1730861251629,8.130600,10.885700,1.302000,-2.460200,-1.066300,9.141100,-1028.500000,-428.500000,3788.500000
1730861251729,8.738700,6.114200,-2.102000,-1.596800,-1.553700,8.954300,-666.750000,-648.750000,3738.750000
1730861251828,13.551000,4.179500,-3.416300,-2.218900,-2.196800,9.566300,-926.500000,-917.250000,3994.250000
1730861251928,11.077500,1.273400,-4.722400,-2.341100,-2.693700,8.982500,-977.500000,-1124.750000,3750.500000
1730861252029,-9.212200,12.073400,-3.228500,-3.077000,-1.977600,8.709400,-1252.750000,-671.250000,4101.000000
1730861252127,28.448900,48.155100,72.012200,0.000000,0.000000,0.000000,0.000000,0.000000,0.000000
1730861252227,28.448900,48.155100,72.012200,0.000000,0.000000,0.000000,0.000000,0.000000,0.000000
1730861252327,28.448900,48.155100,72.012200,0.000000,0.000000,0.000000,0.000000,0.000000,0.000000
1730861252426,28.448900,48.155100,72.012200,0.000000,0.000000,0.000000,0.000000,0.000000,0.000000
1730861252526,28.448900,48.155100,72.012200,0.000000,0.000000,0.000000,0.000000,0.000000,0.000000
1730861252626,28.448900,48.155100,72.012200,0.000000,0.000000,0.000000,0.000000,0.000000,0.000000
1730861252725,28.448900,48.155100,72.012200,0.000000,0.000000,0.000000,0.000000,0.000000,0.000000
1730861252825,28.448900,48.155100,72.012200,0.000000,0.000000,0.000000,0.000000,0.000000,0.000000
1730861252925,28.448900,48.155100,72.012200,0.000000,0.000000,0.000000,0.000000,0.000000,0.000000
1730861253023,28.448900,48.155100,72.012200,0.000000,0.000000,0.000000,0.000000,0.000000,0.000000
1730861253124,28.448900,48.155100,72.012200,0.000000,0.000000,0.000000,0.000000,0.000000,0.000000
1730861253224,28.448900,48.155100,72.012200,0.000000,0.000000,0.000000,0.000000,0.000000,0.000000
1730861253323,28.448900,48.155100,72.012200,0.000000,0.000000,0.000000,0.000000,0.000000,0.000000
1730861253423,28.448900,48.155100,72.012200,0.000000,0.000000,0.000000,0.000000,0.000000,0.000000
1730861253523,28.448900,48.155100,72.012200,0.000000,0.000000,0.000000,0.000000,0.000000,0.000000
1730861253623,28.448900,48.155100,72.012200,0.000000,0.000000,0.000000,0.000000,0.000000,0.000000
1730861253722,28.448900,48.155100,72.012200,0.000000,0.000000,0.000000,0.000000,0.000000,0.000000
1730861253821,28.448900,48.155100,72.012200,0.000000,0.000000,0.000000,0.000000,0.000000,0.000000
1730861253921,28.448900,48.155100,72.012200,0.000000,0.000000,0.000000,0.000000,0.000000,0.000000
1730861254021,28.448900,48.155100,72.012200,0.000000,0.000000,0.000000,0.000000,0.000000,0.000000
1730861254121,28.448900,48.155100,72.012200,0.000000,0.000000,0.000000,0.000000,0.000000,0.000000
1730861254221,28.448900,48.155100,72.012200,0.000000,0.000000,0.000000,0.000000,0.000000,0.000000
1730861254319,28.448900,48.155100,72.012200,0.000000,0.000000,0.000000,0.000000,0.000000,0.000000
1730861254420,28.448900,48.155100,72.012200,0.000000,0.000000,0.000000,0.000000,0.000000,0.000000
1730861254520,28.448900,48.155100,72.012200,0.000000,0.000000,0.000000,0.000000,0.000000,0.000000
1730861254619,28.448900,48.155100,72.012200,0.000000,0.000000,0.000000,0.000000,0.000000,0.000000
1730861254718,28.448900,48.155100,72.012200,0.000000,0.000000,0.000000,0.000000,0.000000,0.000000
1730861254818,28.448900,48.155100,72.012200,0.000000,0.000000,0.000000,0.000000,0.000000,0.000000
1730861254919,28.448900,48.155100,72.012200,0.000000,0.000000,0.000000,0.000000,0.000000,0.000000
1730861255018,28.448900,48.155100,72.012200,0.000000,0.000000,0.000000,0.000000,0.000000,0.000000
1730861255117,28.448900,48.155100,72.012200,0.000000,0.000000,0.000000,0.000000,0.000000,0.000000
1730861255218,28.448900,48.155100,72.012200,0.000000,0.000000,0.000000,0.000000,0.000000,0.000000
1730861255318,28.448900,48.155100,72.012200,0.000000,0.000000,0.000000,0.000000,0.000000,0.000000
1730861255416,28.448900,48.155100,72.012200,0.000000,0.000000,0.000000,0.000000,0.000000,0.000000
1730861255517,28.448900,48.155100,72.012200,0.000000,0.000000,0.000000,0.000000,0.000000,0.000000
1730861255616,28.448900,48.155100,72.012200,0.000000,0.000000,0.000000,0.000000,0.000000,0.000000
1730861255716,28.448900,48.155100,72.012200,0.000000,0.000000,0.000000,0.000000,0.000000,0.000000
1730861255816,28.448900,48.155100,72.012200,0.000000,0.000000,0.000000,0.000000,0.000000,0.000000
1730861255916,28.448900,48.155100,72.012200,0.000000,0.000000,0.000000,0.000000,0.000000,0.000000
1730861256016,28.448900,48.155100,72.012200,0.000000,0.000000,0.000000,0.000000,0.000000,0.000000
1730861256114,28.448900,48.155100,72.012200,0.000000,0.000000,0.000000,0.000000,0.000000,0.000000
1730861256215,28.448900,48.155100,72.012200,0.000000,0.000000,0.000000,0.000000,0.000000,0.000000
1730861256315,28.448900,48.155100,72.012200,0.000000,0.000000,0.000000,0.000000,0.000000,0.000000
1730861256414,28.448900,48.155100,72.012200,0.000000,0.000000,0.000000,0.000000,0.000000,0.000000
1730861256514,28.448900,48.155100,72.012200,0.000000,0.000000,0.000000,0.000000,0.000000,0.000000
1730861256613,28.448900,48.155100,72.012200,0.000000,0.000000,0.000000,0.000000,0.000000,0.000000
1730861256714,28.448900,48.155100,72.012200,0.000000,0.000000,0.000000,0.000000,0.000000,0.000000
1730861256813,28.448900,48.155100,72.012200,0.000000,0.000000,0.000000,0.000000,0.000000,0.000000
1730861256913,28.448900,48.155100,72.012200,0.000000,0.000000,0.000000,0.000000,0.000000,0.000000
1730861257013,28.448900,48.155100,72.012200,0.000000,0.000000,0.000000,0.000000,0.000000,0.000000
1730861257111,28.448900,48.155100,72.012200,0.000000,0.000000,0.000000,0.000000,0.000000,0.000000
1730861257212,28.448900,48.155100,72.012200,0.000000,0.000000,0.000000,0.000000,0.000000,0.000000
1730861257312,28.448900,48.155100,72.012200,0.000000,0.000000,0.000000,0.000000,0.000000,0.000000
1730861257411,28.448900,48.155100,72.012200,0.000000,0.000000,0.000000,0.000000,0.000000,0.000000
1730861257511,28.448900,48.155100,72.012200,0.000000,0.000000,0.000000,0.000000,0.000000,0.000000
1730861257611,28.448900,48.155100,72.012200,0.000000,0.000000,0.000000,0.000000,0.000000,0.000000
1730861257711,28.448900,48.155100,72.012200,0.000000,0.000000,0.000000,0.000000,0.000000,0.000000
1730861257809,28.448900,48.155100,72.012200,0.000000,0.000000,0.000000,0.000000,0.000000,0.000000
1730861257909,28.448900,48.155100,72.012200,0.000000,0.000000,0.000000,0.000000,0.000000,0.000000
1730861258010,28.448900,48.155100,72.012200,0.000000,0.000000,0.000000,0.000000,0.000000,0.000000
1730861258109,28.448900,48.155100,72.012200,0.000000,0.000000,0.000000,0.000000,0.000000,0.000000
1730861258208,28.448900,48.155100,72.012200,0.000000,0.000000,0.000000,0.000000,0.000000,0.000000
1730861258308,28.448900,48.155100,72.012200,0.000000,0.000000,0.000000,0.000000,0.000000,0.000000
1730861258408,28.448900,48.155100,72.012200,0.000000,0.000000,0.000000,0.000000,0.000000,0.000000
1730861258508,28.448900,48.155100,72.012200,0.000000,0.000000,0.000000,0.000000,0.000000,0.000000
1730861258608,28.448900,48.155100,72.012200,0.000000,0.000000,0.000000,0.000000,0.000000,0.000000
1730861258707,28.448900,48.155100,72.012200,0.000000,0.000000,0.000000,0.000000,0.000000,0.000000
1730861258806,28.448900,48.155100,72.012200,0.000000,0.000000,0.000000,0.000000,0.000000,0.000000
1730861258907,28.448900,48.155100,72.012200,0.000000,0.000000,0.000000,0.000000,0.000000,0.000000
1730861259007,28.448900,48.155100,72.012200,0.000000,0.000000,0.000000,0.000000,0.000000,0.000000
1730861259106,28.448900,48.155100,72.012200,0.000000,0.000000,0.000000,0.000000,0.000000,0.000000
1730861259206,28.448900,48.155100,72.012200,0.000000,0.000000,0.000000,0.000000,0.000000,0.000000
1730861259305,28.448900,48.155100,72.012200,0.000000,0.000000,0.000000,0.000000,0.000000,0.000000
1730861259406,28.448900,48.155100,72.012200,0.000000,0.000000,0.000000,0.000000,0.000000,0.000000
1730861259505,28.448900,48.155100,72.012200,0.000000,0.000000,0.000000,0.000000,0.000000,0.000000
1730861259605,28.448900,48.155100,72.012200,0.000000,0.000000,0.000000,0.000000,0.000000,0.000000
1730861259705,28.448900,48.155100,72.012200,0.000000,0.000000,0.000000,0.000000,0.000000,0.000000
1730861259805,28.448900,48.155100,72.012200,0.000000,0.000000,0.000000,0.000000,0.000000,0.000000
1730861259904,28.448900,48.155100,72.012200,0.000000,0.000000,0.000000,0.000000,0.000000,0.000000
1730861260003,28.448900,48.155100,72.012200,0.000000,0.000000,0.000000,0.000000,0.000000,0.000000
1730861260103,28.448900,48.155100,72.012200,0.000000,0.000000,0.000000,0.000000,0.000000,0.000000
1730861260204,28.448900,48.155100,72.012200,0.000000,0.000000,0.000000,0.000000,0.000000,0.000000
1730861260303,28.448900,48.155100,72.012200,0.000000,0.000000,0.000000,0.000000,0.000000,0.000000
1730861260403,28.448900,48.155100,72.012200,0.000000,0.000000,0.000000,0.000000,0.000000,0.000000
1730861260503,28.448900,48.155100,72.012200,0.000000,0.000000,0.000000,0.000000,0.000000,0.000000
1730861260602,28.448900,48.155100,72.012200,0.000000,0.000000,0.000000,0.000000,0.000000,0.000000
1730861260702,28.448900,48.155100,72.012200,0.000000,0.000000,0.000000,0.000000,0.000000,0.000000
1730861260802,28.448900,48.155100,72.012200,0.000000,0.000000,0.000000,0.000000,0.000000,0.000000
1730861260902,28.448900,48.155100,72.012200,0.000000,0.000000,0.000000,0.000000,0.000000,0.000000
1730861261000,28.448900,48.155100,72.012200,0.000000,0.000000,0.000000,0.000000,0.000000,0.000000
1730861261100,28.448900,48.155100,72.012200,0.000000,0.000000,0.000000,0.000000,0.000000,0.000000
1730861261200,28.448900,48.155100,72.012200,0.000000,0.000000,0.000000,0.000000,0.000000,0.000000
1730861261300,28.448900,48.155100,72.012200,0.000000,0.000000,0.000000,0.000000,0.000000,0.000000
1730861261400,28.448900,48.155100,72.012200,0.000000,0.000000,0.000000,0.000000,0.000000,0.000000
1730861261500,28.448900,48.155100,72.012200,0.000000,0.000000,0.000000,0.000000,0.000000,0.000000
1730861261600,28.448900,48.155100,72.012200,0.000000,0.000000,0.000000,0.000000,0.000000,0.000000
1730861261699,28.448900,48.155100,72.012200,0.000000,0.000000,0.000000,0.000000,0.000000,0.000000
1730861261798,28.448900,48.155100,72.012200,0.000000,0.000000,0.000000,0.000000,0.000000,0.000000
1730861261899,28.448900,48.155100,72.012200,0.000000,0.000000,0.000000,0.000000,0.000000,0.000000
1730861261998,28.448900,48.155100,72.012200,0.000000,0.000000,0.000000,0.000000,0.000000,0.000000
1730861262097,28.448900,48.155100,72.012200,0.000000,0.000000,0.000000,0.000000,0.000000,0.000000
1730861262198,28.448900,48.155100,72.012200,0.000000,0.000000,0.000000,0.000000,0.000000,0.000000
1730861262298,28.448900,48.155100,72.012200,0.000000,0.000000,0.000000,0.000000,0.000000,0.000000
1730861262397,28.448900,48.155100,72.012200,0.000000,0.000000,0.000000,0.000000,0.000000,0.000000
1730861262497,28.448900,48.155100,72.012200,0.000000,0.000000,0.000000,0.000000,0.000000,0.000000
1730861262597,28.448900,48.155100,72.012200,0.000000,0.000000,0.000000,0.000000,0.000000,0.000000
1730861262696,28.448900,48.155100,72.012200,0.000000,0.000000,0.000000,0.000000,0.000000,0.000000
1730861262795,28.448900,48.155100,72.012200,0.000000,0.000000,0.000000,0.000000,0.000000,0.000000
1730861262896,28.448900,48.155100,72.012200,0.000000,0.000000,0.000000,0.000000,0.000000,0.000000
1730861262996,28.448900,48.155100,72.012200,0.000000,0.000000,0.000000,0.000000,0.000000,0.000000
1730861263095,28.448900,48.155100,72.012200,0.000000,0.000000,0.000000,0.000000,0.000000,0.000000
1730861263194,28.448900,48.155100,72.012200,0.000000,0.000000,0.000000,0.000000,0.000000,0.000000
1730861263295,28.448900,48.155100,72.012200,0.000000,0.000000,0.000000,0.000000,0.000000,0.000000
1730861263394,28.448900,48.155100,72.012200,0.000000,0.000000,0.000000,0.000000,0.000000,0.000000
1730861263494,28.448900,48.155100,72.012200,0.000000,0.000000,0.000000,0.000000,0.000000,0.000000
1730861263594,28.448900,48.155100,72.012200,0.000000,0.000000,0.000000,0.000000,0.000000,0.000000
1730861263694,28.448900,48.155100,72.012200,0.000000,0.000000,0.000000,0.000000,0.000000,0.000000
1730861263793,28.448900,48.155100,72.012200,0.000000,0.000000,0.000000,0.000000,0.000000,0.000000
1730861263893,28.448900,48.155100,72.012200,0.000000,0.000000,0.000000,0.000000,0.000000,0.000000
1730861263992,28.448900,48.155100,72.012200,0.000000,0.000000,0.000000,0.000000,0.000000,0.000000
1730861264092,28.448900,48.155100,72.012200,0.000000,0.000000,0.000000,0.000000,0.000000,0.000000
1730861264192,28.448900,48.155100,72.012200,0.000000,0.000000,0.000000,0.000000,0.000000,0.000000
1730861264292,28.448900,48.155100,72.012200,0.000000,0.000000,0.000000,0.000000,0.000000,0.000000
1730861264391,28.448900,48.155100,72.012200,0.000000,0.000000,0.000000,0.000000,0.000000,0.000000
1730861264490,28.448900,48.155100,72.012200,0.000000,0.000000,0.000000,0.000000,0.000000,0.000000
1730861264591,28.448900,48.155100,72.012200,0.000000,0.000000,0.000000,0.000000,0.000000,0.000000
1730861264691,28.448900,48.155100,72.012200,0.000000,0.000000,0.000000,0.000000,0.000000,0.000000
1730861264790,28.448900,48.155100,72.012200,0.000000,0.000000,0.000000,0.000000,0.000000,0.000000
1730861264890,28.448900,48.155100,72.012200,0.000000,0.000000,0.000000,0.000000,0.000000,0.000000
1730861264990,28.448900,48.155100,72.012200,0.000000,0.000000,0.000000,0.000000,0.000000,0.000000
1730861265090,28.448900,48.155100,72.012200,0.000000,0.000000,0.000000,0.000000,0.000000,0.000000
1730861265189,28.448900,48.155100,72.012200,0.000000,0.000000,0.000000,0.000000,0.000000,0.000000
1730861265289,28.448900,48.155100,72.012200,0.000000,0.000000,0.000000,0.000000,0.000000,0.000000
