timestamp,Gyro_x,Gyro_y,Gyro_z,Accel_x,Accel_y,Accel_z,Mag_x,Mag_y,Mag_z
1730861901292,-2.428500,0.473400,0.991800,0.305300,0.033500,9.672800,-127.500000,-14.000000,4038.750000
1730861901292,-2.363200,0.497900,-1.036700,0.308900,0.048400,9.659100,-129.000000,-20.250000,4033.000000
1730861901292,-2.395900,0.481600,-1.028500,0.307100,0.029300,9.673400,-129.000000,-12.500000,4038.500000
1730861901293,-2.330600,0.497900,0.991800,0.313100,0.041300,9.668600,-130.750000,-17.250000,4037.000000
1730861901293,-2.428500,0.506100,-1.036700,0.297500,0.041300,9.663300,-124.250000,-17.250000,4034.750000
1730861901293,-2.444800,0.465300,-1.040800,0.299900,0.038900,9.668600,-124.500000,-14.000000,4038.500000
1730861901294,-2.404000,0.506100,-1.000000,0.306500,0.043100,9.683000,-128.000000,-18.000000,4043.000000
1730861901294,-2.400000,0.469300,0.971400,0.304700,0.037700,9.675200,-127.250000,-15.750000,4039.750000
1730861901294,-2.404000,0.497900,0.955100,0.308300,0.035900,9.678200,-128.000000,-9.250000,4041.000000
1730861901295,-2.351000,0.453000,-1.016300,0.305900,0.025100,9.675800,-127.750000,-10.500000,4040.000000
1730861901295,-2.363200,0.465300,-1.032600,0.307700,0.037100,9.678800,-128.500000,-15.500000,4041.250000
1730861901295,-2.338700,0.457100,-1.000000,0.304700,0.030500,9.672800,-127.250000,-12.750000,4038.750000
1730861901296,-2.469300,0.502000,-1.012200,0.296900,0.035300,9.674000,-124.000000,-14.750000,4039.250000
1730861901296,-2.371400,0.497900,-1.012200,0.294500,0.037700,9.671000,-123.000000,-15.750000,4038.000000
1730861901296,-2.371400,0.432600,0.987700,0.290900,0.039500,9.668600,-121.500000,-16.500000,4037.000000
1730861901296,-2.367300,0.493800,0.991800,0.313700,0.039500,9.680000,-131.000000,-16.500000,4041.750000
1730861901297,-2.502000,0.502000,-1.016300,0.315500,0.022100,9.667400,-129.000000,-7.500000,4039.500000
1730861901297,-2.412200,0.457100,-1.081600,0.303500,0.038900,9.675200,-126.750000,-16.250000,4039.750000
1730861901297,-2.473400,0.522400,-1.065300,0.302300,0.029900,9.678200,-126.250000,-12.500000,4041.000000
1730861901298,-2.428500,0.465300,-2.053000,0.302300,0.038300,9.674600,-124.750000,-20.250000,4028.750000
1730861901298,-2.444800,0.518300,-1.036700,0.310700,0.044300,9.675200,-129.750000,-18.500000,4039.750000
1730861901298,-2.510200,0.457100,-1.036700,0.305300,0.037100,9.663300,-127.500000,-15.500000,4034.750000
1730861901299,-2.493800,0.485700,-1.040800,0.282000,0.036500,9.581200,-112.000000,-24.250000,4033.750000
1730861901299,-2.465300,0.461200,0.995900,0.307700,0.055000,9.696200,-128.500000,-23.000000,4048.500000
1730861901299,-2.473400,0.522400,-1.065300,0.311900,0.040700,9.687800,-130.250000,-17.000000,4045.000000
1730861901299,-2.412200,0.416300,-1.053000,0.299300,0.014300,9.668600,-118.750000,-19.250000,4037.000000
1730861901300,-2.400000,0.502000,-1.016300,0.311900,0.046100,9.669200,-130.250000,-19.250000,4037.250000
1730861901300,-2.432600,0.473400,0.987700,0.302900,0.027500,9.681800,-126.500000,-11.500000,4042.500000
1730861901300,-2.457100,0.510200,-1.032600,0.291500,0.034100,9.665100,-121.750000,-14.250000,4035.500000
1730861901301,-2.404000,0.510200,0.983600,0.305300,0.049000,9.669200,-127.500000,-20.500000,4037.250000
1730861901301,-2.440800,0.506100,-1.020400,0.310700,0.034700,9.680000,-129.750000,-14.500000,4041.750000
1730861901301,-2.326500,0.489700,-1.004000,0.307100,0.044900,9.669800,-128.250000,-18.750000,4037.500000
1730861901302,-2.395900,0.506100,-1.061200,0.312500,0.049600,9.683000,-130.500000,-20.750000,4043.000000
1730861901302,-2.416300,0.457100,-1.024400,0.291500,0.041900,9.672200,-122.000000,-10.750000,4038.500000
1730861901302,-2.444800,0.538700,0.975500,0.308300,0.031100,9.670400,-128.750000,-13.000000,4037.750000
1730861901303,-2.391800,0.530600,-1.000000,0.304700,0.056200,9.672200,-127.250000,-23.500000,4038.500000
1730861901303,-2.465300,0.542800,-2.085700,0.299300,0.037700,9.674600,-128.250000,-13.750000,4037.000000
1730861901303,-2.444800,0.530600,-1.044800,0.293900,0.037700,9.672800,-122.750000,-15.750000,4038.750000
1730861901304,-2.440800,0.453000,-1.020400,0.282600,0.045500,9.675800,-118.000000,-19.000000,4040.000000
1730861901304,-2.424400,0.481600,-1.020400,0.292100,0.047900,9.665600,-117.500000,-16.750000,4039.750000
1730861901304,-2.379500,0.526500,0.991800,0.307100,0.032300,9.676400,-128.250000,-13.500000,4040.250000
1730861901304,-2.424400,0.493800,-1.028500,0.305300,0.025700,9.679400,-127.500000,-10.750000,4041.500000
1730861901305,-2.416300,0.559100,-1.077500,0.286800,0.032300,9.688400,-117.250000,-13.500000,4045.250000
1730861901305,-2.322400,0.481600,0.967300,0.310700,0.028100,9.680000,-129.750000,-11.750000,4041.750000
1730861901305,-2.355100,0.469300,-1.008100,0.330500,0.028700,9.676400,-138.000000,-12.000000,4040.250000
1730861901306,-2.416300,0.571400,-1.069300,0.322700,0.048400,9.671600,-134.750000,-20.250000,4038.250000
1730861901306,-2.469300,0.542800,-1.053000,0.300500,0.039500,9.678200,-125.500000,-16.500000,4041.000000
1730861901306,-2.432600,0.497900,0.955100,0.297500,0.044300,9.668000,-124.250000,-18.500000,4036.750000
1730861901307,-2.453000,0.448900,-1.028500,0.305900,0.035300,9.678800,-127.750000,-14.750000,4041.250000
1730861901307,-2.563200,0.453000,-1.089700,0.313700,0.050200,9.668600,-131.000000,-21.000000,4037.000000
1730861901307,-2.400000,0.534600,-1.004000,0.306500,0.038900,9.679400,-130.500000,-16.000000,4042.500000
1730861901307,-2.379500,0.477500,0.995900,0.309500,0.037700,9.674000,-129.250000,-15.750000,4039.250000
1730861901308,-2.493800,0.530600,-1.085700,0.285000,0.031100,9.679400,-119.000000,-13.000000,4041.500000
1730861901308,-2.502000,0.518300,-1.048900,0.301100,0.026300,9.679400,-130.750000,-12.750000,4042.000000
1730861901308,-2.485700,0.518300,-1.024400,0.321500,0.031700,9.674600,-134.250000,-13.250000,4039.500000
1730861901309,-2.444800,0.530600,-1.008100,0.317300,0.047900,9.660300,-132.500000,-20.000000,4033.500000
1730861901309,-2.436700,0.485700,-1.044800,0.308900,0.038900,9.677000,-122.250000,-14.500000,4038.500000
1730861901309,-2.432600,0.502000,-1.044800,0.301100,0.039500,9.679400,-125.750000,-16.500000,4041.500000
1730861901310,-2.424400,0.510200,-1.073400,0.294500,0.040700,9.675200,-123.000000,-17.000000,4039.750000
1730861901310,-2.440800,0.493800,-1.044800,0.307700,0.028100,9.675200,-130.500000,-11.750000,4039.750000
1730861901310,-2.404000,0.469300,0.995900,0.301100,0.034100,9.680000,-125.750000,-14.250000,4041.750000
1730861901311,-2.387700,0.473400,0.983600,0.302300,0.038300,9.671600,-126.250000,-16.000000,4038.250000
1730861901311,-2.408100,0.465300,-1.004000,0.315500,0.024500,9.677000,-131.750000,-10.250000,4040.500000
1730861901311,-2.391800,0.489700,0.987700,0.307700,0.032300,9.677000,-128.500000,-13.500000,4040.500000
1730861901311,-2.297900,0.444800,-1.004000,0.301700,0.037100,9.675800,-126.000000,-15.500000,4040.000000
1730861901312,-2.448900,0.514200,-1.065300,0.310100,0.040700,9.670400,-129.500000,-17.000000,4037.750000
1730861901312,-2.444800,0.534600,-1.012200,0.298700,0.035300,9.675200,-124.750000,-14.750000,4039.750000
1730861901312,-2.338700,0.530600,0.991800,0.295100,0.032900,9.674600,-122.500000,-14.000000,4040.500000
1730861901313,-2.489700,0.546900,-1.048900,0.307100,0.031700,9.675800,-128.250000,-13.250000,4040.000000
1730861901313,-2.428500,0.444800,-1.024400,0.313100,0.034100,9.674600,-130.750000,-14.250000,4039.500000
1730861901313,-2.375500,0.563200,-1.016300,0.307100,0.031700,9.671600,-130.750000,-12.500000,4039.250000
1730861901314,-2.289700,0.497900,0.975500,0.307100,0.037700,9.659100,-128.250000,-15.750000,4033.000000
1730861901314,-2.351000,0.420400,-1.008100,0.301700,0.047300,9.671000,-126.000000,-19.750000,4038.000000
1730861901314,-2.322400,0.473400,-1.000000,0.292700,0.038900,9.665600,-127.000000,-19.250000,4038.750000
1730861901315,-2.379500,0.436700,-1.032600,0.310700,0.029900,9.665600,-129.750000,-12.500000,4035.750000
1730861901315,-2.387700,0.497900,-1.065300,0.311900,0.038900,9.667400,-130.250000,-16.250000,4036.500000
1730861901315,-2.428500,0.489700,-1.000000,0.292100,0.036500,9.678200,-126.500000,-15.250000,4041.000000
1730861901315,-2.448900,0.506100,-1.040800,0.300500,0.036500,9.675800,-125.500000,-15.250000,4040.000000
1730861901316,-2.293800,0.473400,0.930600,0.299900,0.035900,9.679400,-125.250000,-15.000000,4041.500000
1730861901316,-2.293800,0.473400,0.951000,0.306500,0.046700,9.676400,-128.000000,-19.500000,4040.250000
1730861901316,-2.379500,0.538700,-1.028500,0.301700,0.038900,9.678800,-126.000000,-16.250000,4041.250000
1730861901317,-2.363200,0.477500,0.979500,0.301700,0.024500,9.677000,-126.000000,-10.250000,3976.500000
1730861901317,-2.363200,0.514200,0.983600,0.302900,0.035300,9.667400,-126.500000,-14.750000,4036.500000
1730861901317,-2.391800,0.510200,0.971400,0.288500,0.041900,9.675800,-120.500000,-17.500000,4040.000000
1730861901318,-2.322400,0.424400,0.983600,0.305900,0.035900,9.672800,-132.000000,-10.500000,4039.750000
1730861901318,-2.436700,0.518300,-1.004000,0.302900,0.037700,9.677000,-126.500000,-15.750000,4040.500000
1730861901318,-2.338700,0.477500,0.971400,0.299300,0.043700,9.678200,-125.000000,-18.250000,4041.000000
1730861901319,-2.351000,0.506100,-1.016300,0.305900,0.042500,9.675800,-126.500000,-14.000000,4044.750000
1730861901319,-2.338700,0.493800,-1.008100,0.299900,0.040700,9.662100,-125.250000,-17.000000,4034.250000
1730861901319,-2.293800,0.469300,0.951000,0.307100,0.047300,9.652500,-128.250000,-19.750000,4030.250000
1730861901319,-2.424400,0.469300,-1.028500,0.306500,0.026900,9.676400,-130.500000,-10.500000,4042.000000
1730861901320,-2.416300,0.477500,-1.012200,0.304100,0.050200,9.668000,-127.000000,-21.000000,4036.750000
1730861901320,-2.404000,0.514200,-1.008100,0.301100,0.050200,9.677000,-125.750000,-21.000000,4040.500000
1730861901320,-2.297900,0.428500,0.991800,0.301700,0.025100,9.677000,-125.500000,-10.500000,4040.500000
1730861901321,-2.404000,0.485700,0.963200,0.308900,0.043100,9.670400,-129.000000,-18.000000,4037.750000
1730861901321,-2.363200,0.518300,-1.004000,0.293900,0.040100,9.677000,-122.750000,-16.750000,4040.500000
1730861901321,-2.367300,0.510200,-1.044800,0.302300,0.025700,9.671000,-126.250000,-10.750000,4038.000000
1730861901322,-2.289700,0.477500,0.995900,0.307700,0.037100,9.668000,-128.500000,-15.500000,4036.750000
1730861901322,-2.326500,0.514200,0.971400,0.305300,0.040700,9.674000,-127.500000,-17.000000,4040.250000
1730861901322,-2.395900,0.481600,-1.036700,0.302900,0.029300,9.677600,-126.500000,-12.250000,4040.750000
1730861901322,-2.387700,0.473400,-1.008100,0.305300,0.039500,9.674000,-127.500000,-16.500000,4039.250000
1730861901323,-2.432600,0.485700,-1.000000,0.300500,0.033500,9.675200,-130.000000,-11.500000,4041.500000
1730861901323,-2.371400,0.485700,0.987700,0.307700,0.031100,9.676400,-128.500000,-13.000000,4040.250000
1730861901323,-2.424400,0.477500,-1.012200,0.309500,0.035900,9.668000,-129.250000,-15.000000,4036.750000
1730861901324,-2.326500,0.489700,0.987700,0.318500,0.042500,9.671600,-123.500000,-16.750000,4041.250000
1730861901324,-2.330600,0.497900,0.963200,0.304700,0.037700,9.673400,-127.250000,-15.750000,4039.000000
1730861901324,-2.379500,0.526500,-1.044800,0.298700,0.042500,9.674600,-124.750000,-17.750000,4039.500000
1730861901325,-2.379500,0.485700,-1.044800,0.305300,0.037100,9.673400,-129.750000,-14.750000,4041.500000
1730861901325,-2.342800,0.489700,0.979500,0.313700,0.036500,9.665100,-131.000000,-15.250000,4035.500000
1730861901325,-2.404000,0.485700,0.959100,0.310700,0.031100,9.674000,-129.750000,-13.000000,4039.250000
1730861901326,-2.391800,0.485700,0.963200,0.298100,0.033500,9.670400,-124.500000,-14.000000,4037.750000
1730861901326,-2.391800,0.440800,-1.024400,0.296900,0.041300,9.669800,-124.000000,-17.250000,4037.500000
1730861901326,-2.371400,0.485700,-1.004000,0.303500,0.041300,9.674000,-126.750000,-17.250000,4039.250000
1730861901326,-2.404000,0.502000,0.987700,0.298100,0.041300,9.669200,-124.500000,-17.250000,4037.250000
1730861901327,-2.465300,0.526500,-1.024400,0.302300,0.039500,9.670400,-126.250000,-16.500000,4037.750000
1730861901327,-2.461200,0.493800,-1.012200,0.305300,0.033500,9.674000,-127.500000,-14.750000,4037.000000
1730861901327,-2.457100,0.555100,0.975500,0.311900,0.033500,9.677000,-130.250000,-14.000000,4040.500000
1730861901328,-2.444800,0.518300,-1.000000,0.298100,0.041900,9.678200,-124.500000,-17.500000,4041.000000
1730861901328,-2.485700,0.440800,-1.004000,0.305300,0.041900,9.678200,-126.750000,-15.750000,4037.500000
1730861901328,-2.371400,0.510200,-1.020400,0.302300,0.031700,9.674600,-126.250000,-13.250000,4039.500000
1730861901329,-2.412200,0.473400,-1.012200,0.299900,0.029900,9.674600,-125.250000,-12.500000,4039.500000
1730861901329,-2.420400,0.493800,-1.048900,0.298700,0.037700,9.671000,-128.750000,-15.500000,4040.250000
1730861901329,-2.448900,0.518300,-1.097900,0.296900,0.025700,9.671000,-124.000000,-10.750000,4038.000000
1730861901329,-2.379500,0.493800,-1.020400,0.307700,0.040100,9.670400,-128.500000,-16.750000,4037.750000
1730861901330,-2.428500,0.481600,-1.057100,0.307100,0.035300,9.669800,-125.750000,-14.250000,4035.250000
1730861901330,-2.457100,0.502000,0.991800,0.300500,0.026300,9.679400,-125.500000,-11.000000,4041.500000
1730861901330,-2.412200,0.493800,-1.028500,0.301700,0.033500,9.673400,-126.000000,-14.000000,4039.000000
1730861901331,-2.346900,0.448900,0.987700,0.311300,0.041300,9.674600,-130.000000,-17.250000,4039.500000
1730861901331,-2.408100,0.493800,-1.020400,0.311900,0.034100,9.667400,-130.250000,-14.250000,4036.500000
1730861901331,-2.489700,0.522400,-1.036700,0.302300,0.040100,9.675200,-126.250000,-16.750000,4039.750000
1730861901332,-2.428500,0.563200,-1.048900,0.304100,0.039500,9.666800,-127.000000,-16.500000,4036.250000
1730861901332,-2.408100,0.506100,-1.044800,0.313700,0.037100,9.666800,-131.000000,-15.500000,4036.250000
1730861901332,-2.400000,0.453000,0.946900,0.304700,0.038300,9.678800,-127.250000,-14.000000,4039.000000
1730861901332,-2.359100,0.444800,-1.008100,0.298100,0.034100,9.671600,-124.500000,-14.250000,4038.250000
1730861901333,-2.444800,0.473400,0.983600,0.316100,0.030500,9.677600,-132.000000,-12.750000,4040.750000
1730861901333,-2.342800,0.526500,-1.032600,0.311300,0.029300,9.673400,-132.000000,-12.500000,4039.250000
1730861901333,-2.367300,0.493800,0.983600,0.307100,0.037100,9.676400,-128.250000,-15.500000,4040.250000
1730861901334,-2.371400,0.457100,0.983600,0.296900,0.046700,9.677000,-124.000000,-19.500000,4040.500000
1730861901334,-2.318300,0.510200,-1.004000,0.304700,0.039500,9.677000,-128.250000,-17.250000,4038.500000
1730861901334,-2.346900,0.534600,-1.000000,0.302900,0.038300,9.677600,-126.500000,-16.000000,4040.750000
1730861901335,-2.416300,0.506100,-1.028500,0.305900,0.035900,9.671600,-127.750000,-15.000000,4038.250000
1730861901335,-2.383600,0.497900,0.975500,0.305300,0.032300,9.674000,-131.250000,-12.750000,4039.250000
1730861901335,-2.363200,0.477500,0.991800,0.307700,0.032300,9.675800,-128.500000,-13.500000,4040.000000
1730861901336,-2.448900,0.510200,0.959100,0.314900,0.045500,9.666800,-131.500000,-19.000000,4036.250000
1730861901336,-2.424400,0.502000,-1.016300,0.315500,0.034100,9.669200,-131.750000,-14.250000,4037.250000
1730861901336,-2.420400,0.506100,-1.032600,0.304700,0.034700,9.675200,-127.250000,-14.500000,4039.750000
1730861901336,-2.453000,0.502000,-1.044800,0.311300,0.040700,9.678200,-130.000000,-17.000000,4041.000000
1730861901337,-2.424400,0.485700,-1.040800,0.295100,0.041300,9.678800,-123.250000,-17.250000,4041.250000
1730861901337,-2.408100,0.534600,-1.028500,0.305300,0.029300,9.664500,-127.500000,-12.250000,4035.250000
1730861901337,-2.428500,0.461200,-1.040800,0.303500,0.034700,9.680000,-126.750000,-14.250000,4036.500000
1730861901338,-2.404000,0.514200,-1.024400,0.301100,0.037100,9.668600,-125.750000,-15.500000,4037.000000
1730861901338,-2.285700,0.493800,0.967300,0.305900,0.038900,9.677000,-127.750000,-16.250000,4040.500000
1730861901338,-2.408100,0.457100,-1.004000,0.298700,0.035300,9.675200,-129.500000,-15.750000,4034.000000
1730861901339,-2.326500,0.506100,0.979500,0.305300,0.034700,9.659700,-127.500000,-14.500000,4033.250000
1730861901339,-2.412200,0.461200,-1.004000,0.302300,0.034700,9.665100,-126.250000,-14.500000,4035.500000
1730861901339,-2.408100,0.489700,0.995900,0.304700,0.038300,9.678800,-127.500000,-13.000000,4039.000000
1730861901340,-2.485700,0.489700,-1.000000,0.308300,0.031100,9.668600,-128.750000,-13.000000,4037.000000
1730861901340,-2.342800,0.485700,0.991800,0.302900,0.038300,9.678200,-126.500000,-16.000000,4041.000000
1730861901340,-2.351000,0.444800,-1.004000,0.301700,0.037100,9.681800,-126.750000,-18.000000,4042.500000
1730861901341,-2.359100,0.477500,-1.004000,0.308900,0.032300,9.675200,-129.000000,-13.500000,4039.750000
1730861901341,-2.391800,0.481600,0.995900,0.308300,0.032300,9.664500,-128.750000,-13.500000,4035.250000
1730861901341,-2.469300,0.477500,-1.032600,0.306500,0.038300,9.667400,-128.000000,-16.000000,4036.500000
1730861901342,-2.412200,0.518300,-1.061200,0.307100,0.038300,9.668600,-128.250000,-16.000000,4037.000000
1730861901342,-2.473400,0.530600,0.975500,0.308300,0.034700,9.674000,-128.750000,-14.500000,4039.250000
1730861901342,-2.338700,0.489700,0.938700,0.304100,0.037100,9.673400,-127.000000,-15.500000,4039.000000
1730861901342,-2.518300,0.551000,-1.044800,0.301700,0.038900,9.677600,-126.000000,-16.250000,4040.750000
1730861901343,-2.367300,0.497900,0.967300,0.297500,0.031700,9.675800,-132.000000,-14.000000,4041.500000
1730861901343,-2.326500,0.510200,0.995900,0.303500,0.038300,9.677000,-126.750000,-16.000000,4040.500000
1730861901343,-2.363200,0.493800,-1.028500,0.298700,0.028700,9.680000,-124.750000,-12.000000,4041.750000
1730861901344,-2.379500,0.489700,-2.028500,0.306500,0.037700,9.666800,-128.750000,-14.750000,4035.500000
1730861901344,-2.428500,0.522400,-1.012200,0.310700,0.039500,9.670400,-129.750000,-16.500000,4037.750000
1730861901344,-2.383600,0.534600,-1.000000,0.308300,0.038900,9.671600,-128.750000,-16.250000,4038.250000
1730861901345,-2.469300,0.502000,0.995900,0.301700,0.041300,9.667400,-126.500000,-16.750000,4038.250000
1730861901345,-2.302000,0.510200,0.942800,0.310700,0.046700,9.674600,-129.750000,-19.500000,4039.500000
1730861901345,-2.363200,0.420400,0.955100,0.306500,0.023300,9.676400,-128.000000,-9.750000,4040.250000
1730861901346,-2.416300,0.506100,0.959100,0.304700,0.040100,9.669200,-124.750000,-15.750000,4037.250000
1730861901346,-2.428500,0.530600,-1.012200,0.298100,0.039500,9.676400,-124.500000,-16.500000,4040.250000
1730861901346,-2.359100,0.518300,-1.020400,0.296300,0.033500,9.665100,-123.750000,-14.000000,4035.500000
1730861901346,-2.318300,0.510200,0.971400,0.304700,0.032900,9.675800,-127.250000,-13.750000,4040.000000
1730861901347,-2.391800,0.506100,-1.012200,0.308900,0.041300,9.668600,-129.000000,-17.250000,4037.000000
1730861901347,-2.346900,0.493800,-1.069300,0.301100,0.036500,9.674600,-125.750000,-15.250000,4039.500000
1730861901347,-2.346900,0.432600,-1.004000,0.299900,0.034700,9.676400,-125.250000,-14.500000,4040.250000
1730861901348,-2.432600,0.538700,-1.032600,0.301100,0.034100,9.670400,-125.750000,-14.250000,4037.750000
1730861901348,-2.448900,0.575500,-1.044800,0.298700,0.031700,9.678200,-124.750000,-18.000000,4036.750000
1730861901348,-2.383600,0.502000,-1.044800,0.301100,0.026900,9.679400,-125.750000,-11.250000,4041.500000
1730861901349,-2.391800,0.530600,-1.008100,0.308900,0.028100,9.664500,-129.000000,-11.750000,4035.250000
1730861901349,-2.383600,0.538700,-1.004000,0.296900,0.026300,9.676400,-127.250000,-14.750000,4038.750000
1730861901350,-2.346900,0.432600,-1.016300,0.301100,0.040700,9.678800,-125.750000,-17.000000,4041.250000
1730861901350,-2.391800,0.489700,0.979500,0.337600,0.030500,9.689600,-124.750000,-15.000000,4045.750000
1730861901369,-2.367300,0.510200,-1.036700,0.310100,0.043700,9.679400,-129.500000,-18.250000,4041.500000
1730861901383,-2.330600,0.420400,0.995900,0.302900,0.047300,9.648300,-126.500000,-19.750000,4028.500000
1730861901403,-2.391800,0.444800,-1.020400,0.308300,0.021500,9.675200,-128.750000,-9.000000,4039.750000
1730861901423,-2.346900,0.473400,0.991800,0.310100,0.026300,9.663900,-129.500000,-11.000000,4035.000000
1730861901443,-2.338700,0.502000,0.971400,0.313100,0.049600,9.681200,-130.750000,-20.750000,4042.250000
1730861901463,-2.375500,0.497900,-1.008100,0.307700,0.019100,9.668600,-128.500000,-8.000000,4037.000000
1730861901483,-2.346900,0.522400,-1.004000,0.307100,0.039500,9.674000,-128.250000,-16.500000,4039.250000
1730861901503,-2.371400,0.448900,0.975500,0.298700,0.041900,9.674000,-124.750000,-17.000000,4031.750000
1730861901523,-2.355100,0.526500,0.979500,0.308300,0.029900,9.664500,-128.750000,-12.500000,4035.250000
1730861901543,-2.314200,0.473400,0.991800,0.307700,0.043700,9.673400,-128.500000,-18.250000,4039.000000
1730861901563,-2.346900,0.485700,-1.008100,0.315500,0.033500,9.677000,-134.500000,-8.000000,4040.750000
1730861901583,-2.453000,0.518300,0.995900,0.293900,0.027500,9.675800,-122.750000,-11.500000,4040.000000
1730861901603,-2.338700,0.481600,0.975500,0.304100,0.050200,9.669200,-127.000000,-21.000000,4037.250000
1730861901622,-2.346900,0.453000,0.979500,0.299300,0.043700,9.665100,-124.500000,-15.000000,4041.250000
1730861901643,-2.355100,0.485700,0.951000,0.308300,0.037100,9.670400,-128.750000,-15.500000,4037.750000
1730861901662,-2.261200,0.465300,-1.061200,0.306500,0.047300,9.673400,-128.000000,-19.750000,4039.000000
1730861901682,-2.461200,0.469300,-1.048900,0.309500,0.029900,9.674000,-129.000000,-12.250000,4039.250000
1730861901701,-2.432600,0.514200,-1.028500,0.310700,0.033500,9.665600,-129.750000,-14.000000,4035.750000
1730861901722,-2.424400,0.510200,0.995900,0.306500,0.043100,9.673400,-128.000000,-18.000000,4039.000000
1730861901742,-2.391800,0.444800,-1.024400,0.305300,0.042500,9.675200,-127.500000,-17.750000,4039.750000
1730861901762,-2.461200,0.506100,-1.048900,0.312500,0.032300,9.678800,-130.500000,-13.500000,4041.250000
1730861901782,-2.489700,0.497900,-1.057100,0.303500,0.027500,9.680000,-126.750000,-11.500000,4041.750000
1730861901802,-2.428500,0.424400,-1.008100,0.309500,0.029900,9.674000,-129.250000,-12.500000,4039.250000
1730861901822,-2.371400,0.416300,0.991800,0.315500,0.019700,9.669200,-131.750000,-8.250000,4037.250000
1730861901842,-2.395900,0.493800,0.979500,0.310700,0.032900,9.673400,-125.250000,-20.500000,4041.250000
1730861901861,-2.453000,0.453000,-1.016300,0.287400,0.046100,9.660300,-120.000000,-19.250000,4033.500000
1730861901882,-2.338700,0.497900,0.987700,0.307100,0.035900,9.670400,-128.250000,-15.000000,4037.750000
1730861901902,-2.375500,0.489700,-1.020400,0.312500,0.036500,9.678800,-132.000000,-15.750000,4038.000000
1730861901922,-2.330600,0.497900,-1.000000,0.308900,0.038900,9.677000,-129.000000,-16.250000,4040.500000
1730861901942,-2.351000,0.424400,-1.008100,0.312500,0.022700,9.678200,-130.500000,-9.500000,4041.000000
1730861901962,-2.367300,0.387700,-1.008100,0.307100,0.031100,9.675800,-127.250000,-14.000000,4038.750000
1730861901982,-2.395900,0.436700,-1.040800,0.308900,0.044900,9.674000,-129.000000,-18.750000,4039.250000
1730861902002,-2.297900,0.412200,0.987700,0.302900,0.053200,9.670400,-126.500000,-22.250000,4037.750000
1730861902021,-2.387700,0.457100,0.967300,0.306500,0.041900,9.674000,-129.500000,-17.500000,4039.250000
1730861902041,-2.359100,0.493800,-1.004000,0.302900,0.040100,9.676400,-126.500000,-16.750000,4040.250000
1730861902061,-2.302000,0.465300,0.963200,0.310100,0.029300,9.678200,-129.500000,-12.250000,4041.000000
1730861902081,-2.367300,0.473400,-1.000000,0.310100,0.038300,9.675200,-129.500000,-16.000000,4039.750000
1730861902101,-2.351000,0.420400,0.955100,0.303500,0.050800,9.674000,-126.750000,-21.250000,4039.250000
1730861902121,-2.322400,0.432600,0.971400,0.296900,0.034700,9.672800,-124.000000,-14.500000,4038.750000
1730861902140,-2.371400,0.400000,-1.000000,0.308300,0.035900,9.672800,-128.750000,-15.000000,4038.750000
1730861902161,-2.395900,0.453000,-1.008100,0.304700,0.041300,9.673400,-127.250000,-17.250000,4039.000000
1730861902181,-2.395900,0.469300,-1.012200,0.311900,0.030500,9.671600,-129.250000,-11.000000,4039.750000
1730861902200,-2.424400,0.453000,-1.020400,0.293900,0.030500,9.666800,-122.750000,-12.750000,4036.250000
1730861902221,-2.355100,0.408100,0.983600,0.282600,0.035300,9.669200,-118.000000,-14.750000,4037.250000
1730861902241,-2.400000,0.453000,0.983600,0.312500,0.059200,9.642900,-122.250000,-35.750000,4029.750000
1730861902261,-2.367300,0.469300,0.983600,0.307700,0.058600,9.673400,-128.500000,-24.500000,4039.000000
1730861902281,-2.395900,0.457100,0.991800,0.315500,0.018500,9.671600,-131.750000,-7.750000,4038.250000
1730861902300,-2.412200,0.489700,-1.000000,0.302300,0.028700,9.679400,-117.250000,-22.750000,4035.500000
1730861902321,-2.453000,0.473400,-1.048900,0.304100,0.048400,9.671000,-127.000000,-20.250000,4038.000000
1730861902340,-2.432600,0.461200,-1.085700,0.290300,0.000500,9.680000,-121.250000,0.250000,4041.750000
1730861902361,-2.424400,0.510200,-1.040800,0.304100,0.049600,9.672800,-130.000000,-29.250000,4038.750000
1730861902380,-2.493800,0.514200,-1.032600,0.296900,0.050800,9.671000,-124.000000,-21.250000,4038.000000
1730861902400,-2.485700,0.514200,-1.020400,0.297500,0.019100,9.675800,-124.250000,-8.000000,4040.000000
1730861902420,-2.440800,0.448900,-1.024400,0.288500,0.049000,9.671600,-120.500000,-20.500000,4038.250000
1730861902440,-2.395900,0.416300,-1.012200,0.310700,0.047900,9.677600,-129.750000,-20.000000,4040.750000
1730861902460,-2.408100,0.510200,-1.004000,0.304700,0.019700,9.675200,-127.250000,-8.250000,4039.750000
1730861902480,-2.428500,0.510200,-1.016300,0.312500,0.052000,9.678800,-130.500000,-21.750000,4041.250000
1730861902500,-2.518300,0.514200,-1.024400,0.310700,0.056800,9.675800,-129.750000,-23.750000,4040.000000
1730861902520,-2.395900,0.510200,-1.016300,0.289700,0.026900,9.678200,-122.000000,-7.500000,4033.000000
1730861902539,-2.363200,0.432600,0.995900,0.297500,0.046100,9.670400,-124.250000,-19.250000,4037.750000
1730861902560,-2.436700,0.477500,-1.008100,0.314300,0.040700,9.675200,-131.250000,-17.000000,4039.750000
1730861902579,-2.391800,0.461200,-1.000000,0.302300,0.026300,9.668600,-127.250000,-10.500000,4037.500000
1730861902600,-2.326500,0.453000,-1.024400,0.308900,0.049000,9.677000,-129.000000,-20.500000,4040.500000
1730861902620,-2.428500,0.465300,-1.053000,0.291500,0.036500,9.681800,-121.750000,-15.250000,4042.500000
1730861902640,-2.375500,0.432600,-1.044800,0.296900,0.027500,9.668000,-126.500000,-11.500000,4039.000000
1730861902660,-2.424400,0.506100,-1.008100,0.298100,0.047300,9.672200,-124.500000,-19.750000,4038.500000
1730861902680,-2.395900,0.489700,-1.000000,0.307700,0.053800,9.669200,-128.500000,-22.500000,4037.250000
1730861902698,-2.383600,0.469300,-1.028500,0.297500,0.032300,9.678200,-123.750000,-10.500000,4041.000000
1730861902718,-2.338700,0.469300,0.951000,0.300500,0.038300,9.674000,-125.500000,-16.000000,4039.250000
1730861902738,-2.391800,0.469300,0.983600,0.301100,0.044900,9.669200,-125.750000,-18.750000,4037.250000
1730861902758,-2.338700,0.453000,0.955100,0.308300,0.039500,9.680000,-128.750000,-16.500000,4041.750000
1730861902779,-2.346900,0.457100,-1.012200,0.313700,0.039500,9.664500,-131.000000,-16.500000,4035.250000
1730861902799,-2.281600,0.489700,0.951000,0.307700,0.037100,9.668000,-128.500000,-15.500000,4036.750000
1730861902819,-2.346900,0.473400,0.995900,0.301700,0.034700,9.671600,-126.000000,-14.500000,4038.250000
1730861902838,-2.363200,0.493800,0.987700,0.302300,0.037700,9.675800,-126.250000,-15.750000,4040.000000
1730861902859,-2.436700,0.514200,-1.036700,0.303500,0.052600,9.672200,-124.000000,-19.250000,4040.500000
1730861902879,-2.481600,0.530600,-1.024400,0.302300,0.036500,9.677000,-126.250000,-15.250000,4040.500000
1730861902898,-2.489700,0.444800,-1.057100,0.304700,0.037100,9.662100,-127.250000,-15.500000,4034.250000
1730861902919,-2.424400,0.453000,-1.069300,0.305300,0.037100,9.679400,-123.750000,-17.500000,4036.250000
1730861902939,-2.481600,0.526500,-1.024400,0.301100,0.038300,9.675200,-125.750000,-16.000000,4039.750000
1730861902959,-2.530600,0.534600,-1.065300,0.305900,0.039500,9.666200,-127.750000,-16.500000,4036.000000
1730861902979,-2.326500,0.489700,-1.020400,0.302900,0.039500,9.671000,-123.250000,-11.500000,4039.500000
1730861902999,-2.359100,0.518300,-1.004000,0.292700,0.051400,9.674600,-122.250000,-21.500000,4039.500000
1730861903019,-2.416300,0.506100,-1.000000,0.289700,0.040100,9.675800,-121.000000,-16.750000,4040.000000
1730861903039,-2.428500,0.481600,-1.044800,0.301100,0.043100,9.677600,-126.000000,-14.500000,4040.750000
1730861903058,-2.363200,0.473400,-1.000000,0.307700,0.045500,9.679400,-128.500000,-19.000000,4041.500000
1730861903078,-2.334600,0.481600,0.963200,0.308300,0.044900,9.675200,-128.750000,-18.750000,4039.750000
1730861903098,-2.363200,0.506100,0.979500,0.305900,0.032900,9.675800,-127.750000,-13.750000,4040.000000
1730861903118,-2.346900,0.453000,0.959100,0.300500,0.041300,9.674600,-125.500000,-17.250000,4039.500000
1730861903138,-2.367300,0.465300,-1.004000,0.299900,0.045500,9.672800,-125.250000,-19.000000,4038.750000
1730861903158,-2.379500,0.489700,0.963200,0.298700,0.041300,9.678200,-124.750000,-17.250000,4041.000000
1730861903178,-2.306100,0.432600,0.942800,0.301100,0.037700,9.666200,-125.750000,-15.750000,4036.000000
1730861903198,-2.424400,0.489700,0.987700,0.308900,0.041900,9.665600,-124.500000,-19.000000,4036.750000
1730861903218,-2.420400,0.493800,-1.000000,0.303500,0.038900,9.672200,-126.750000,-16.250000,4038.500000
1730861903238,-2.493800,0.497900,-1.044800,0.302300,0.040100,9.669200,-126.250000,-16.750000,4037.250000
1730861903258,-2.481600,0.481600,-1.048900,0.296900,0.044300,9.674000,-127.500000,-17.000000,4036.500000
1730861903278,-2.440800,0.506100,-1.012200,0.302300,0.038900,9.675200,-126.250000,-16.250000,4039.750000
1730861903298,-2.534600,0.469300,-1.020400,0.301700,0.042500,9.670400,-126.000000,-17.750000,4037.750000
1730861903318,-2.534600,0.448900,-1.093800,0.298700,0.043100,9.671000,-126.250000,-14.750000,4036.250000
1730861903338,-2.469300,0.522400,-1.040800,0.301700,0.038300,9.674600,-126.000000,-16.000000,4039.500000
1730861903358,-2.334600,0.477500,0.979500,0.303500,0.036500,9.674600,-126.750000,-15.250000,4039.500000
1730861903378,-2.448900,0.514200,-1.032600,0.301100,0.043700,9.678800,-124.000000,-18.250000,4041.250000
1730861903398,-2.408100,0.420400,-1.024400,0.299300,0.036500,9.669800,-125.000000,-15.250000,4037.500000
1730861903417,-2.395900,0.473400,-1.036700,0.304700,0.041900,9.678800,-127.250000,-17.500000,4041.250000
1730861903436,-2.436700,0.510200,-1.057100,0.295700,0.050200,9.680600,-123.500000,-21.000000,4042.000000
1730861903457,-2.444800,0.514200,-1.032600,0.299300,0.046100,9.673400,-125.000000,-19.250000,4039.000000
1730861903477,-2.436700,0.522400,-1.028500,0.301100,0.041300,9.674600,-125.750000,-17.250000,4039.500000
1730861903497,-2.444800,0.444800,0.991800,0.300500,0.036500,9.663300,-125.500000,-15.250000,4034.750000
1730861903517,-2.400000,0.510200,-1.000000,0.287400,0.043100,9.680000,-120.000000,-18.000000,4041.750000
1730861903537,-2.489700,0.518300,-1.048900,0.304100,0.044300,9.677600,-129.250000,-14.000000,4037.250000
1730861903557,-2.391800,0.502000,-1.048900,0.293300,0.042500,9.678200,-122.500000,-17.750000,4041.000000
1730861903577,-2.412200,0.477500,0.983600,0.298700,0.037700,9.667400,-124.750000,-15.750000,4036.500000
1730861903597,-2.420400,0.493800,-1.057100,0.295700,0.034700,9.677000,-126.000000,-16.250000,4041.250000
1730861903617,-2.302000,0.461200,0.995900,0.294500,0.038300,9.680000,-123.000000,-16.000000,4041.750000
1730861903637,-2.355100,0.485700,-1.004000,0.305300,0.036500,9.679400,-127.500000,-15.250000,4041.500000
1730861903657,-2.310200,0.493800,0.979500,0.305300,0.037700,9.670400,-126.500000,-17.500000,4041.250000
1730861903677,-2.408100,0.465300,-1.000000,0.290300,0.044900,9.677600,-121.250000,-18.750000,4040.750000
1730861903697,-2.387700,0.444800,0.967300,0.308300,0.031100,9.677600,-128.750000,-13.000000,4040.750000
1730861903717,-2.432600,0.469300,0.991800,0.308300,0.033500,9.675800,-128.750000,-14.000000,4040.000000
1730861903737,-2.461200,0.502000,-1.012200,0.296300,0.044900,9.674600,-123.750000,-18.750000,4039.500000
1730861903757,-2.412200,0.518300,-1.053000,0.308300,0.042500,9.672200,-128.750000,-17.750000,4038.500000
1730861903776,-2.448900,0.489700,0.995900,0.302300,0.035300,9.663900,-126.250000,-14.750000,4035.000000
1730861903796,-2.322400,0.424400,0.946900,0.299900,0.045500,9.668600,-125.250000,-19.000000,4037.000000
1730861903816,-2.375500,0.518300,0.991800,0.293900,0.045500,9.670400,-122.750000,-19.000000,4038.750000
1730861903836,-2.493800,0.493800,-1.044800,0.303500,0.034100,9.670400,-126.750000,-14.250000,4037.750000
1730861903856,-2.448900,0.506100,-1.048900,0.295700,0.034700,9.674000,-123.500000,-14.500000,4039.250000
1730861903876,-2.457100,0.444800,-1.024400,0.301700,0.037100,9.673400,-126.000000,-13.500000,4034.000000
1730861903896,-2.424400,0.493800,-1.000000,0.293300,0.039500,9.677600,-122.500000,-16.500000,4040.750000
1730861903916,-2.322400,0.477500,-1.016300,0.301700,0.041300,9.668000,-126.000000,-17.250000,4036.750000
1730861903936,-2.391800,0.534600,-1.024400,0.298700,0.035300,9.669200,-122.000000,-17.250000,4040.000000
1730861903956,-2.412200,0.469300,-1.024400,0.288500,0.038300,9.677600,-120.500000,-16.000000,4040.750000
1730861903976,-2.457100,0.530600,0.971400,0.296900,0.036500,9.678200,-124.000000,-15.250000,4041.000000
1730861903996,-2.428500,0.510200,-1.020400,0.306500,0.037100,9.675200,-123.250000,-13.250000,4035.250000
1730861904016,-2.440800,0.497900,-1.024400,0.303500,0.034700,9.678200,-126.750000,-14.500000,4041.000000
1730861904036,-2.416300,0.497900,-1.032600,0.299300,0.041900,9.674600,-125.000000,-17.500000,4039.500000
1730861904056,-2.522400,0.542800,-1.069300,0.304100,0.040100,9.674600,-127.000000,-16.750000,4039.500000
1730861904076,-2.522400,0.469300,-1.077500,0.292700,0.042500,9.678800,-122.250000,-17.750000,4041.250000
1730861904096,-2.453000,0.493800,-1.053000,0.299300,0.038300,9.667400,-125.000000,-16.000000,4036.500000
1730861904115,-2.444800,0.497900,-1.032600,0.298100,0.042500,9.675800,-124.500000,-17.750000,4040.000000
1730861904135,-2.542800,0.563200,-1.069300,0.283800,0.033500,9.668000,-118.500000,-14.000000,4036.750000
1730861904155,-2.465300,0.432600,-1.008100,0.311900,0.036500,9.666200,-130.250000,-15.250000,4035.000000
1730861904175,-2.489700,0.489700,-1.048900,0.290300,0.049000,9.673400,-121.250000,-20.500000,4039.000000
1730861904195,-2.391800,0.485700,-1.069300,0.304100,0.041300,9.671000,-127.000000,-17.250000,4038.000000
1730861904215,-2.440800,0.489700,0.987700,0.302300,0.038300,9.672200,-124.750000,-17.500000,4039.750000
1730861904235,-2.367300,0.461200,0.971400,0.305900,0.035900,9.677000,-127.750000,-15.000000,4040.500000
1730861904254,-2.342800,0.481600,0.995900,0.297500,0.035300,9.670400,-124.250000,-14.750000,4037.750000
1730861904274,-2.416300,0.485700,-1.004000,0.305300,0.040700,9.674600,-129.750000,-20.750000,4037.750000
1730861904295,-2.351000,0.493800,0.995900,0.295700,0.041300,9.671600,-123.500000,-17.250000,4038.250000
1730861904315,-2.289700,0.502000,0.987700,0.301700,0.046100,9.662700,-126.000000,-19.250000,4034.500000
1730861904335,-2.371400,0.473400,0.951000,0.296300,0.038300,9.666200,-123.250000,-17.000000,4037.000000
1730861904355,-2.359100,0.502000,0.967300,0.299300,0.039500,9.663300,-125.000000,-16.500000,4034.750000
1730861904375,-2.338700,0.461200,0.946900,0.289100,0.039500,9.668000,-120.750000,-16.500000,4036.750000
1730861904395,-2.416300,0.510200,0.983600,0.305300,0.052600,9.660900,-127.000000,-22.000000,4033.750000
1730861904415,-2.436700,0.477500,-1.024400,0.297500,0.032900,9.669800,-124.250000,-13.750000,4037.500000
1730861904435,-2.420400,0.534600,-1.000000,0.308900,0.038300,9.669200,-129.000000,-16.000000,4037.250000
1730861904454,-2.416300,0.444800,-1.008100,0.299300,0.036500,9.671000,-125.000000,-15.250000,4038.000000
1730861904474,-2.355100,0.485700,0.959100,0.304100,0.041900,9.677600,-127.000000,-17.500000,4040.750000
1730861904494,-2.461200,0.530600,0.995900,0.305900,0.042500,9.680600,-127.750000,-17.750000,4038.000000
1730861904514,-2.359100,0.538700,-1.040800,0.293900,0.043100,9.684200,-122.750000,-18.000000,4043.500000
1730861904534,-2.444800,0.453000,0.975500,0.295100,0.043100,9.672800,-123.250000,-18.000000,4038.750000
1730861904554,-2.363200,0.502000,-1.004000,0.304100,0.043100,9.668000,-126.500000,-19.000000,4041.000000
1730861904574,-2.432600,0.506100,0.995900,0.300500,0.045500,9.671000,-125.500000,-19.000000,4038.000000
1730861904594,-2.436700,0.510200,-1.020400,0.306500,0.053200,9.670400,-128.000000,-22.250000,4037.750000
1730861904613,-2.306100,0.481600,-1.024400,0.298700,0.040700,9.677000,-126.000000,-15.500000,4031.750000
1730861904634,-2.469300,0.489700,0.979500,0.288000,0.039500,9.665600,-120.250000,-16.500000,4035.750000
1730861904653,-2.363200,0.502000,-1.016300,0.286200,0.036500,9.677000,-119.500000,-15.250000,4040.500000
1730861904674,-2.469300,0.518300,-1.061200,0.301700,0.038900,9.662100,-124.000000,-13.250000,4039.000000
1730861904694,-2.363200,0.497900,-1.008100,0.301100,0.043100,9.675800,-125.750000,-18.000000,4040.000000
1730861904714,-2.461200,0.518300,-1.012200,0.292700,0.050200,9.678800,-122.250000,-21.000000,4041.250000
1730861904734,-2.391800,0.497900,-1.016300,0.296900,0.043100,9.667400,-123.750000,-18.000000,4036.500000
1730861904754,-2.416300,0.469300,0.995900,0.295700,0.035300,9.671000,-123.500000,-14.750000,4038.000000
1730861904774,-2.493800,0.473400,-1.057100,0.305900,0.036500,9.671000,-127.750000,-15.250000,4038.000000
1730861904793,-2.306100,0.453000,0.955100,0.302300,0.039500,9.672800,-126.250000,-16.500000,4038.750000
1730861904813,-2.424400,0.481600,-1.024400,0.310100,0.035900,9.666800,-129.500000,-15.000000,4036.250000
1730861904833,-2.371400,0.489700,-1.000000,0.296900,0.041900,9.672800,-124.000000,-17.500000,4042.000000
1730861904853,-2.330600,0.469300,-1.004000,0.296300,0.039500,9.674000,-123.750000,-16.500000,4039.250000
1730861904873,-2.342800,0.481600,0.955100,0.292700,0.048400,9.668000,-122.250000,-20.250000,4036.750000
1730861904893,-2.387700,0.432600,-1.032600,0.298700,0.046700,9.669800,-126.750000,-17.750000,4040.750000
1730861904912,-2.400000,0.465300,0.995900,0.304100,0.036500,9.677600,-127.000000,-15.250000,4040.750000
1730861904933,-2.432600,0.457100,-1.020400,0.297500,0.041900,9.667400,-124.250000,-17.500000,4036.500000
1730861904953,-2.351000,0.461200,-1.040800,0.292700,0.041300,9.666800,-124.500000,-17.500000,4037.250000
1730861904973,-2.379500,0.477500,0.942800,0.295100,0.038300,9.673400,-123.250000,-16.000000,4039.000000
1730861904993,-2.375500,0.428500,0.967300,0.301100,0.046100,9.668600,-125.750000,-19.250000,4037.000000
1730861905013,-2.424400,0.510200,-1.008100,0.302300,0.043700,9.672800,-126.750000,-14.750000,4036.000000
1730861905032,-2.330600,0.473400,0.975500,0.296900,0.035300,9.669800,-124.000000,-14.750000,4037.500000
1730861905053,-2.489700,0.506100,-1.028500,0.305900,0.044300,9.681200,-127.750000,-18.500000,4042.250000
1730861905073,-2.404000,0.473400,-1.061200,0.150800,0.128700,9.665100,-48.250000,-53.750000,4035.500000
1730861905093,-2.469300,0.595900,-1.306100,0.480200,0.021500,9.686000,-200.500000,-9.000000,4044.250000
1730861905112,-2.473400,0.542800,-1.077500,0.345400,0.022100,9.688400,-144.250000,-9.250000,4045.250000
1730861905132,-2.497900,0.506100,-1.069300,0.301100,0.038300,9.675800,-125.750000,-16.000000,4040.000000
1730861905151,-2.457100,0.522400,-1.016300,0.293900,0.043700,9.663300,-122.750000,-18.250000,4034.750000
1730861905172,-2.400000,0.514200,-1.016300,0.305900,0.039500,9.662700,-127.750000,-16.500000,4036.000000
1730861905192,-2.526500,0.477500,-1.040800,0.296300,0.025700,9.656100,-123.750000,-10.750000,4031.750000
1730861905212,-2.473400,0.412200,0.975500,0.275400,0.043700,9.671000,-115.000000,-18.250000,4038.000000
1730861905232,-2.412200,0.448900,-1.016300,0.297500,0.043700,9.680000,-127.000000,-14.250000,4034.500000
1730861905252,-2.318300,0.420400,0.979500,0.307100,0.033500,9.669800,-128.250000,-14.000000,4037.500000
1730861905272,-2.444800,0.497900,0.991800,0.310700,0.035900,9.675200,-129.750000,-15.000000,4039.750000
1730861905292,-2.465300,0.493800,-1.032600,0.305300,0.041900,9.672200,-128.000000,-14.250000,4043.500000
1730861905312,-2.408100,0.506100,0.979500,0.284400,0.041900,9.660900,-118.750000,-17.500000,4033.750000
1730861905332,-2.497900,0.489700,-1.036700,0.299300,0.048400,9.672800,-125.000000,-20.250000,4038.750000
1730861905352,-2.395900,0.461200,-1.032600,0.302900,0.039500,9.674600,-127.750000,-16.750000,4036.000000
1730861905372,-2.493800,0.465300,-1.020400,0.295700,0.040100,9.678800,-123.500000,-16.750000,4041.250000
1730861905392,-2.383600,0.489700,-1.004000,0.293900,0.052600,9.672200,-122.750000,-22.000000,4038.500000
1730861905412,-2.387700,0.485700,-1.012200,0.307100,0.029300,9.674600,-128.250000,-12.250000,4039.500000
1730861905432,-2.330600,0.502000,0.987700,0.308900,0.030500,9.672800,-129.000000,-12.750000,4038.750000
1730861905451,-2.367300,0.477500,0.959100,0.298100,0.048400,9.670400,-124.500000,-20.250000,4037.750000
1730861905472,-2.383600,0.497900,-1.016300,0.299300,0.034100,9.674000,-125.000000,-14.250000,4039.250000
1730861905491,-2.342800,0.493800,-1.004000,0.301700,0.034700,9.668600,-126.000000,-14.500000,4037.000000
1730861905511,-2.375500,0.485700,-1.020400,0.302900,0.041300,9.662700,-126.500000,-17.250000,4033.000000
1730861905531,-2.395900,0.514200,-1.008100,0.297500,0.043100,9.669800,-124.250000,-18.000000,4037.500000
1730861905551,-2.391800,0.514200,-1.012200,0.297500,0.038900,9.671600,-124.250000,-16.250000,4038.250000
1730861905571,-2.424400,0.489700,-1.000000,0.293900,0.046100,9.675200,-124.500000,-19.000000,4041.000000
1730861905591,-2.428500,0.489700,0.967300,0.308300,0.040100,9.674000,-128.750000,-16.750000,4039.250000
1730861905611,-2.436700,0.481600,0.983600,0.301100,0.036500,9.678200,-125.750000,-15.250000,4041.000000
1730861905631,-2.342800,0.518300,-1.032600,0.299900,0.042500,9.674600,-126.500000,-19.250000,4039.250000
1730861905651,-2.408100,0.477500,-1.012200,0.294500,0.036500,9.673400,-123.000000,-15.250000,4039.000000
1730861905671,-2.293800,0.493800,-1.012200,0.298700,0.036500,9.677000,-124.750000,-15.250000,4040.500000
1730861905691,-2.424400,0.526500,-1.012200,0.304700,0.040100,9.671000,-127.750000,-16.000000,4039.250000
1730861905711,-2.412200,0.448900,-1.032600,0.296900,0.037100,9.669200,-124.000000,-15.500000,4037.250000
1730861905731,-2.314200,0.493800,0.995900,0.301700,0.038900,9.680000,-126.000000,-16.250000,4041.750000
1730861905751,-2.408100,0.485700,-1.036700,0.310700,0.046100,9.680600,-129.750000,-19.250000,4042.000000
1730861905771,-2.412200,0.473400,-1.000000,0.296900,0.035300,9.674600,-124.000000,-14.750000,4039.500000
1730861905791,-2.436700,0.506100,-1.016300,0.293300,0.044900,9.661500,-122.500000,-18.750000,4034.000000
1730861905811,-2.469300,0.481600,-1.008100,0.301700,0.037700,9.678200,-126.000000,-15.750000,4041.000000
1730861905830,-2.444800,0.489700,-1.089700,0.302900,0.038300,9.674600,-126.500000,-16.000000,4039.500000
1730861905850,-2.424400,0.506100,-1.048900,0.303500,0.051400,9.677600,-126.750000,-21.500000,4035.500000
1730861905870,-2.391800,0.530600,-1.032600,0.296900,0.040100,9.663900,-124.000000,-16.750000,4035.000000
1730861905890,-2.440800,0.448900,-1.061200,0.298700,0.034100,9.677000,-124.750000,-14.250000,4040.500000
1730861905910,-2.428500,0.444800,-1.036700,0.270000,0.037100,9.672800,-125.250000,-12.750000,4037.250000
1730861905930,-2.404000,0.502000,0.983600,0.313100,0.037100,9.679400,-130.750000,-15.500000,4041.500000
1730861905950,-2.481600,0.469300,-1.028500,0.390900,0.053200,9.439300,-163.250000,-22.250000,3941.250000
1730861905970,-2.351000,0.420400,-1.020400,0.313100,0.063400,9.704600,-126.250000,-26.250000,4037.250000
1730861905990,-2.514200,0.518300,0.991800,0.311300,0.001100,9.627900,-130.000000,0.500000,4020.000000
1730861906010,-2.522400,0.461200,-1.028500,0.308300,0.047300,9.684800,-128.750000,-19.750000,4043.750000
1730861906030,-2.424400,0.526500,0.995900,0.313100,0.047300,9.679400,-125.500000,-19.000000,4032.750000
1730861906050,-2.436700,0.477500,-1.000000,0.282000,0.035900,9.672800,-117.750000,-15.000000,4038.750000
1730861906070,-2.391800,0.473400,-1.008100,0.307700,0.040100,9.663900,-128.500000,-16.750000,4035.000000
1730861906089,-2.355100,0.502000,0.959100,0.310100,0.034700,9.676400,-129.500000,-14.500000,4040.250000
1730861906110,-2.379500,0.489700,0.991800,0.290300,0.040100,9.660900,-121.250000,-16.750000,4033.750000
1730861906128,-2.375500,0.526500,0.995900,0.318500,0.020900,9.663900,-133.000000,-8.750000,4035.000000
1730861906150,-2.420400,0.493800,-1.012200,0.302300,0.043700,9.665100,-126.250000,-18.250000,4035.500000
1730861906169,-2.351000,0.514200,0.991800,0.293300,0.037700,9.680000,-122.500000,-15.750000,4041.750000
1730861906189,-2.379500,0.457100,0.967300,0.307700,0.040700,9.672800,-128.500000,-17.000000,4036.250000
1730861906208,-2.412200,0.489700,-1.028500,0.265800,0.055600,9.654300,-111.000000,-23.250000,4031.000000
1730861906229,-2.518300,0.518300,-1.024400,0.268200,0.034700,9.677600,-112.000000,-14.500000,4040.750000
1730861906249,-2.534600,0.448900,-1.020400,0.306500,0.042500,9.667400,-127.750000,-17.750000,4036.750000
1730861906269,-2.502000,0.432600,0.983600,0.269400,0.028700,9.673400,-112.500000,-12.000000,4039.000000
1730861906289,-2.461200,0.457100,-1.032600,0.286800,0.043700,9.655500,-119.750000,-18.250000,4031.500000
1730861906309,-2.440800,0.448900,-1.069300,0.302900,0.052000,9.680600,-128.000000,-17.000000,4037.500000
1730861906329,-2.440800,0.440800,-1.048900,0.223300,0.078400,9.713000,-93.250000,-32.750000,4055.500000
1730861906349,-2.457100,0.489700,-1.036700,0.168200,0.104100,9.564500,-70.250000,43.500000,3993.500000
1730861906369,-2.681600,-1.175500,0.991800,0.041300,0.105300,9.586000,-20.500000,-39.000000,4089.250000
1730861906389,-2.648900,-1.306100,-1.040800,0.241200,0.053800,9.745900,-100.750000,-22.500000,4069.250000
1730861906409,-2.551000,-1.053000,0.991800,0.445400,0.006500,9.630300,-186.000000,-2.750000,4021.000000
1730861906428,-2.391800,0.367300,0.979500,0.314300,0.016100,9.655500,-131.250000,6.750000,4031.500000
1730861906448,-2.440800,0.371400,0.848900,0.217900,0.673500,9.729700,-91.000000,281.250000,4062.500000
1730861906468,-2.453000,0.889700,0.261200,0.232300,0.752000,9.710600,-97.000000,314.000000,4054.500000
1730861906488,-2.497900,0.179500,3.012200,0.288000,0.504700,9.687200,120.250000,210.750000,4044.750000
1730861906508,-2.522400,0.359100,4.277500,0.165200,0.201100,9.762600,69.000000,-84.000000,4076.250000
1730861906528,-2.461200,0.726500,3.946900,0.567600,-1.210000,9.637500,-237.000000,-697.250000,4068.250000
1730861906548,-2.579500,-1.351000,0.563200,0.368800,0.038300,9.524300,-154.000000,-16.000000,3976.750000
1730861906568,-2.620400,0.824400,-1.057100,0.323300,0.010100,9.687200,-135.000000,-4.250000,4044.750000
1730861906588,-2.522400,0.726500,-1.036700,0.338800,0.034100,9.678200,-122.500000,-16.250000,4044.000000
1730861906608,-2.559100,0.657100,-1.073400,0.358000,0.041300,9.677000,-149.500000,-17.250000,4040.500000
1730861906628,-2.448900,0.555100,-1.077500,0.313100,0.039500,9.677600,-130.750000,-16.500000,4040.750000
1730861906648,-2.546900,0.693800,-1.032600,0.313700,0.047900,9.678200,-144.500000,-19.250000,4040.750000
1730861906668,-2.436700,0.673400,-1.065300,0.329300,0.046100,9.677000,-137.500000,-19.250000,4040.500000
1730861906688,-2.424400,0.644800,-1.085700,0.357400,0.034100,9.652500,-149.250000,-14.250000,4030.250000
1730861906708,-2.559100,0.514200,-1.142800,0.325100,0.020900,9.689000,-147.250000,-3.500000,4034.000000
1730861906728,-2.436700,0.465300,-1.048900,0.333500,0.032300,9.683000,-139.250000,-13.500000,4043.000000
1730861906748,-2.420400,0.387700,-1.093800,0.331100,0.038900,9.680000,-138.250000,-16.250000,4041.750000
1730861906768,-2.465300,0.595900,-1.130600,0.325700,0.037700,9.675800,-136.000000,-15.750000,4040.000000
1730861906788,-2.461200,0.595900,-1.122400,0.301700,0.018500,9.677600,-126.000000,-7.750000,4040.750000
1730861906808,-2.510200,0.563200,-1.077500,0.322100,0.033500,9.677000,-134.500000,-14.000000,4040.500000
1730861906828,-2.522400,0.481600,-1.057100,0.358000,0.031700,9.674000,-149.500000,-13.250000,4039.250000
1730861906847,-2.359100,0.367300,0.983600,0.323900,0.040100,9.680600,-135.250000,-16.750000,4042.000000
1730861906867,-2.367300,0.330600,-1.024400,0.324500,0.032900,9.673400,-135.500000,-13.750000,4040.500000
1730861906887,-2.440800,0.265300,-1.175500,0.467600,0.062200,9.568700,-195.250000,26.000000,3995.250000
1730861906907,-2.395900,0.522400,-1.036700,0.415500,0.029300,9.593800,-173.500000,-12.250000,4005.750000
1730861906926,-2.395900,0.359100,-1.065300,0.348400,0.044300,9.676400,-132.250000,-18.000000,4046.250000
1730861906947,-2.489700,0.346900,-1.053000,0.301700,0.032300,9.684200,-126.000000,-13.500000,4043.500000
1730861906966,-2.424400,0.444800,-1.028500,0.331700,0.010700,9.653700,-138.500000,-4.500000,4030.750000
1730861906987,-2.465300,0.661200,-1.069300,0.302300,0.037700,9.680600,-135.250000,-13.500000,4039.000000
1730861907006,-2.432600,0.542800,-1.061200,0.386100,0.032900,9.666800,-161.250000,-13.750000,4036.250000
1730861907026,-2.306100,0.293800,-1.004000,0.355600,0.029300,9.662100,-148.500000,-12.250000,4034.250000
1730861907047,-2.355100,0.195900,0.995900,0.341800,0.026900,9.660900,-147.000000,-14.000000,4033.000000
1730861907067,-2.310200,0.146900,-1.163200,0.693900,0.067600,9.675800,-289.750000,-28.250000,4040.000000
1730861907086,-2.302000,0.008100,-3.155100,0.735200,0.085000,9.641100,-307.000000,35.500000,4025.500000
1730861907107,-2.444800,0.036700,-6.485700,0.109500,0.268200,9.705200,-45.750000,-112.000000,4052.250000
1730861907126,-2.481600,0.424400,-5.326500,0.314900,0.028700,9.633900,131.500000,12.000000,4022.500000
1730861907146,-2.506100,0.546900,-3.204000,0.132900,0.057400,9.658500,-55.500000,24.000000,4032.750000
1730861907166,-2.481600,0.669300,-1.987700,0.129900,0.002900,9.700400,-54.250000,-1.250000,4050.250000
1730861907187,-2.493800,0.665300,-1.812200,0.244800,0.064000,9.654300,-102.250000,-26.750000,4031.000000
1730861907205,-2.493800,0.755100,-1.693800,0.205900,0.044900,9.692600,-86.000000,-18.750000,4049.500000
1730861907226,-2.636700,-1.053000,-2.795900,0.099300,0.142500,9.672200,-41.500000,-59.500000,4038.500000
1730861907246,-2.502000,0.902000,-3.955100,0.336500,0.102300,9.645900,-140.500000,-42.750000,4027.500000
1730861907266,-2.518300,0.526500,-4.485700,0.280200,0.139500,9.630300,-192.250000,-94.000000,4038.500000
1730861907286,-2.379500,0.481600,-5.951000,0.035900,0.050200,9.511200,-15.000000,-21.000000,3971.250000
1730861907306,-2.310200,0.436700,-4.485700,0.396900,0.095800,9.596800,-165.750000,40.000000,4007.000000
1730861907325,-2.514200,0.297900,-3.836700,0.307700,0.086200,9.681800,-36.500000,-60.500000,4087.750000
1730861907345,-2.510200,0.828500,-4.404000,0.467600,0.188600,9.645900,-195.250000,-78.750000,4027.500000
1730861907366,-2.526500,0.012200,-4.355100,0.316100,0.016100,9.730300,-132.000000,6.750000,4062.750000
1730861907386,-2.693800,0.710200,-4.714200,0.104700,0.265200,9.772200,-76.750000,-104.000000,4049.000000
1730861907406,-3.183600,0.289700,-4.975500,0.721400,0.019700,9.666800,-301.250000,-8.250000,4036.250000
1730861907426,-3.244800,0.224400,-4.542800,0.458000,0.007700,9.771600,-191.250000,-3.250000,4080.000000
1730861907446,-4.134600,0.922400,-4.285700,0.158000,0.186200,9.826700,-66.000000,-77.750000,4103.000000
1730861907466,-4.400000,-1.922400,-4.151000,0.391500,0.103500,9.813500,-163.500000,-43.250000,4097.500000
1730861907486,-4.428500,0.906100,-5.391800,0.753200,0.063400,9.908700,-314.500000,26.500000,4137.250000
1730861907505,-6.738700,1.032600,-6.795900,0.267600,0.077800,9.841100,-111.750000,32.500000,4109.000000
1730861907525,-8.081600,0.893800,-6.661200,0.158600,0.172400,9.550700,-66.250000,-72.000000,3987.750000
1730861907545,-8.453000,0.036700,-6.812200,0.193300,0.110700,9.356700,-80.750000,250.750000,3956.250000
1730861907565,-5.689700,-3.306100,-4.355100,0.089200,0.075400,9.441100,37.250000,31.500000,3942.000000
1730861907585,-3.563200,-3.587700,-3.853000,0.493900,0.332300,9.332100,-206.250000,138.750000,3896.500000
1730861907605,0.783600,-2.081600,-4.742800,0.312500,0.067600,9.730300,-273.250000,41.750000,4139.250000
1730861907625,0.355100,0.383600,-5.836700,0.719100,0.025700,10.327300,-300.250000,-10.750000,4312.000000
1730861907645,-1.346900,0.253000,-7.469300,0.504700,0.041300,10.499100,-210.750000,17.250000,4383.750000
1730861907665,-3.224400,-2.661200,-6.420400,0.094000,0.225700,10.399700,-44.000000,72.750000,4253.250000
1730861907685,-4.126500,-3.865300,-5.502000,0.438800,0.296300,9.810500,-183.250000,123.750000,4096.250000
1730861907705,-1.775500,-2.212200,-5.946900,0.542400,0.126300,9.654300,-226.500000,52.750000,4031.000000
1730861907725,2.077500,0.865300,-5.857100,0.438200,0.065800,9.651300,-197.750000,41.250000,3994.000000
1730861907745,5.991800,2.840800,-7.081600,0.744200,0.083200,9.253100,-310.750000,-34.750000,3863.500000
1730861907765,5.820400,1.118300,-6.759100,0.055600,0.658000,9.724900,23.250000,-274.750000,4060.500000
1730861907785,0.775500,0.216300,-6.375500,0.068200,0.431100,9.592000,-28.500000,-180.000000,4005.000000
1730861907804,0.461200,0.897900,-5.685700,0.081400,0.159800,9.703400,34.000000,-66.750000,4051.500000
1730861907825,1.159100,0.844800,-4.412200,0.470000,0.205900,9.866200,-196.250000,-86.000000,4119.500000
1730861907844,1.897900,0.093800,-4.522400,0.631000,0.108300,9.791400,-263.500000,-45.250000,4088.250000
1730861907864,2.918300,0.000000,-5.118300,0.157400,0.071800,9.923100,65.750000,-30.000000,4143.250000
1730861907884,2.391800,-3.502000,-4.469300,0.167600,0.085000,10.009300,70.000000,-35.500000,4172.000000
1730861907904,1.122400,-7.277500,-3.914200,0.457400,0.365800,9.826700,-191.000000,-152.750000,4103.000000
1730861907924,0.383600,-7.942800,-4.673400,0.426900,0.361000,9.680000,-178.250000,-150.750000,4041.750000
1730861907944,0.710200,-7.824400,-5.053000,0.349000,0.347800,9.516000,-175.750000,-87.500000,3982.500000
1730861907964,1.583600,-6.228500,-4.967300,0.658600,0.286200,9.808200,-275.000000,-119.500000,4095.250000
1730861907984,0.424400,-4.489700,-4.616300,0.414900,0.297500,10.029100,-173.250000,-124.250000,4187.500000
1730861908004,0.077500,-5.469300,-3.220400,0.051400,0.084400,10.011100,51.000000,-30.000000,4193.000000
1730861908024,0.604000,-7.281600,-1.110200,0.520900,0.153800,9.890800,-217.500000,-64.250000,4129.750000
1730861908044,-2.310200,-6.457100,0.832600,-1.244200,0.186800,9.874000,-519.500000,-78.000000,4122.750000
1730861908064,-2.473400,-3.991800,-3.004000,0.805300,0.298700,9.693800,-173.250000,-111.250000,4013.750000
1730861908084,-2.028500,-5.599900,-2.514200,0.255600,0.010100,9.472900,-106.750000,-4.250000,3955.250000
1730861908104,-1.457100,-7.583600,-1.281600,0.291500,0.118500,9.437500,-121.750000,-49.500000,3940.500000
1730861908124,-1.542800,-8.820400,0.444800,-1.054400,0.211300,9.711200,-440.250000,-88.250000,4054.750000
1730861908143,-2.053000,-7.510200,1.310200,0.754400,0.000500,9.571600,-315.000000,0.250000,3996.500000
1730861908164,-1.167300,-8.012200,1.526500,0.428100,0.125100,9.304000,-178.750000,-52.250000,3884.750000
1730861908184,0.722400,-10.632600,2.248900,-1.259100,0.455600,9.247700,-525.750000,-190.250000,3861.250000
1730861908204,-1.310200,-10.253000,1.000000,-1.346500,0.570000,9.282400,-562.250000,-238.000000,3875.750000
1730861908224,-1.493800,-7.955100,0.000000,-1.344200,0.419700,9.284200,-561.250000,-175.250000,3880.500000
1730861908244,-1.212200,-2.420400,0.530600,-1.168700,0.486700,9.333300,-488.000000,-203.250000,3897.000000
1730861908263,-1.526500,0.502000,0.261200,0.827400,0.251400,9.397400,-345.500000,-105.000000,3923.750000
1730861908283,-2.534600,-1.489700,0.453000,0.808900,0.517300,9.305800,-430.000000,-242.000000,3880.000000
1730861908303,-4.142800,-3.473400,-2.102000,-1.660300,0.629200,9.466900,-693.250000,-262.750000,3952.750000
1730861908323,-5.840800,0.179500,-4.277500,-1.993800,0.458600,9.809400,-832.500000,-191.500000,4095.750000
1730861908342,-6.191800,2.526500,-5.518300,-1.530400,0.049000,9.824900,-549.750000,30.500000,4095.750000
1730861908363,-2.681600,0.571400,-4.763200,-1.006500,0.040700,9.878800,-420.250000,-17.000000,4124.750000
1730861908383,0.253000,1.616300,-1.538700,0.617900,0.737000,10.058400,-258.000000,-307.750000,4199.750000
1730861908403,-3.224400,-3.375500,3.085700,-1.002900,0.339400,10.200300,-708.000000,-218.250000,4151.500000
1730861908423,-5.640800,-2.673400,1.057100,-1.909400,0.494500,9.545900,-797.250000,-206.500000,3985.750000
1730861908443,-5.342800,0.302000,0.077500,-1.589000,0.086200,9.148900,-663.500000,-36.000000,3820.000000
1730861908463,-2.093800,0.265300,0.102000,-1.266300,0.137100,9.358500,-528.750000,-57.250000,3907.500000
1730861908483,-1.469300,0.404000,0.142800,-1.168700,0.361000,9.405200,-488.000000,-150.750000,3927.000000
1730861908503,0.979500,0.465300,0.216300,-1.280100,0.282000,9.494400,-534.500000,-117.750000,3964.250000
1730861908523,-1.575500,2.081600,-1.444800,-1.622600,0.334100,9.658500,-677.500000,-139.500000,4032.750000
1730861908543,-3.461200,4.575500,-2.220400,-1.384300,0.373000,9.816500,-578.000000,-155.750000,4098.750000
1730861908562,-4.853000,5.959100,-2.004000,-1.298100,0.229300,9.799800,-542.000000,-95.750000,4100.000000
1730861908582,-6.114200,5.114200,-1.036700,0.605900,0.324500,9.714700,-253.000000,-135.500000,4056.250000
1730861908602,-6.302000,2.526500,0.412200,0.741800,0.287400,9.519000,-309.750000,-120.000000,3974.500000
1730861908622,-6.338700,0.032600,0.632600,0.693900,0.376600,9.320800,-253.750000,-143.000000,3842.500000
1730861908642,-5.706100,-2.599900,1.779500,-1.590200,0.808300,9.492600,-664.000000,-337.500000,3963.500000
1730861908662,-3.489700,0.979500,4.995900,0.217300,0.294500,9.308200,-90.750000,-123.000000,3886.500000
1730861908682,-3.457100,-4.085700,5.375500,0.632800,0.398700,9.483000,-141.000000,-97.000000,3999.250000
1730861908702,-3.151000,-7.142800,7.114200,0.178400,0.568200,9.559700,-74.500000,-237.250000,3991.500000
1730861908722,-1.600000,-11.151000,10.265300,0.158000,0.044300,9.554300,-66.000000,-18.500000,3989.250000
1730861908742,-1.004000,-18.293800,10.171400,-1.662100,0.043700,9.871600,-770.500000,35.000000,4072.250000
1730861908762,-2.461200,-19.587700,7.567300,-1.596800,0.042500,9.501000,-666.750000,-17.750000,3967.000000
1730861908782,-3.730600,-20.297900,8.167300,-1.632200,0.097500,9.843500,-681.500000,-40.750000,4110.000000
1730861908802,-6.473400,-16.706100,6.914200,-2.373400,0.628600,10.299100,-991.000000,-262.500000,4300.250000
1730861908822,-9.061200,-12.906100,7.253000,-1.706400,0.581300,10.433300,-712.500000,-242.750000,4356.250000
1730861908842,-12.587700,-11.595900,8.371400,-1.665100,0.186200,10.517700,-695.250000,-77.750000,4391.500000
1730861908862,-16.485700,-12.351000,9.326500,-2.765000,0.372400,9.874600,-1154.500000,-155.500000,4123.000000
1730861908881,-16.395900,-8.363200,5.420400,-3.029600,0.543000,9.467500,-1265.000000,226.750000,3953.000000
1730861908901,-14.444800,-4.322400,1.159100,-2.368600,0.717300,9.132800,-989.000000,299.500000,3759.750000
1730861908921,-10.444800,-1.636700,0.759100,-2.142900,0.445400,8.831000,-894.750000,186.000000,3687.250000
1730861908941,-8.444800,0.889700,1.746900,-2.246500,0.414300,9.270500,-938.000000,173.000000,3870.750000
1730861908960,-7.567300,0.306100,2.930600,-1.778300,0.073600,9.465100,-655.750000,25.250000,3959.250000
1730861908980,-8.820400,0.604000,4.204000,-1.581300,0.189200,9.486000,-660.250000,79.000000,3960.750000
1730861909001,-9.065300,-1.106100,5.502000,-1.897400,0.365800,9.440500,-792.250000,152.750000,3941.750000
1730861909021,-10.069300,-2.787700,6.416300,-2.173400,0.037700,9.408200,-891.500000,-96.000000,3870.000000
1730861909041,-13.497900,0.559100,6.334600,-1.917200,0.250800,9.199800,-800.500000,104.750000,3841.250000
1730861909061,-14.093800,-1.130600,7.355100,-2.215300,0.994500,9.197400,-925.000000,415.250000,3840.250000
1730861909081,-8.281600,-3.155100,4.261200,-3.087700,1.618400,8.532800,-1263.000000,584.250000,3500.250000
1730861909101,0.640800,0.163200,1.644800,-2.466800,1.004100,8.454400,-1030.000000,419.250000,3530.000000
1730861909121,5.375500,1.379500,0.171400,-2.316500,0.498100,8.947100,-967.250000,208.000000,3735.750000
1730861909141,8.097900,2.877500,-2.248900,-2.483600,0.435200,9.775200,-1026.500000,181.750000,4081.500000
1730861909161,6.330600,1.216300,-2.820400,-2.107000,0.347800,9.847700,-879.750000,145.250000,4111.750000
1730861909180,4.628500,0.559100,-2.285700,-2.124900,0.438800,9.715900,-887.250000,183.250000,4056.750000
1730861909201,4.955100,-2.971400,-2.265300,-2.194400,0.292100,9.251900,-916.250000,122.000000,3863.000000
1730861909220,7.591800,-3.493800,-1.832600,-1.973400,0.487300,9.256100,-824.000000,203.500000,3864.750000
1730861909239,10.432600,-4.371400,0.057100,-2.010600,0.123300,9.353100,-839.500000,51.500000,4001.750000
1730861909259,7.453000,-4.395900,1.755100,-2.278200,0.125100,10.084800,-951.250000,-52.250000,4210.750000
1730861909280,2.293800,-3.889700,2.069300,-2.229100,0.164000,10.100900,-930.750000,-68.500000,4217.500000
1730861909300,-4.102000,-3.314200,0.346900,-2.496800,-1.032800,9.778200,-1254.250000,-598.250000,3969.250000
1730861909320,-17.689700,4.297900,-7.428500,-2.254300,0.647200,9.875200,-941.250000,270.250000,4123.250000
1730861909340,-17.077500,4.224400,-7.677500,-1.789600,0.997500,9.544700,-747.250000,416.500000,3985.250000
1730861909360,-12.930600,1.497900,-3.991800,-1.771100,0.683700,9.127400,-768.750000,291.000000,3710.750000
1730861909379,-4.244800,0.506100,-2.881600,-2.292600,0.268800,8.692700,-957.250000,112.250000,3629.500000
1730861909399,0.763200,0.457100,-2.375500,-2.408100,0.039500,9.052500,-1005.500000,-16.500000,3779.750000
1730861909420,1.444800,-1.179500,-3.016300,-2.056100,0.063400,9.781800,-910.750000,245.750000,3956.000000
1730861909440,0.457100,4.220400,1.665300,-2.213500,1.128600,9.507000,-924.250000,471.250000,3969.500000
1730861909460,1.453000,6.608100,3.706100,-2.275800,0.386100,9.580600,-950.250000,161.250000,4000.250000
1730861909480,2.991800,4.873400,1.902000,-1.853100,0.396300,10.027900,-798.750000,-165.500000,4187.000000
1730861909499,1.118300,2.918300,0.322400,-1.522600,0.208300,9.733900,-635.750000,-87.000000,4064.250000
1730861909519,-2.367300,2.755100,0.926500,-1.419600,0.141900,9.322600,-592.750000,59.250000,3892.500000
1730861909538,-6.183600,5.048900,7.048900,-1.508800,0.956200,9.486000,-630.000000,399.250000,3960.750000
1730861909558,-5.648900,3.167300,8.685700,-2.339900,0.605900,9.715300,-977.000000,253.000000,4056.500000
1730861909578,-4.404000,2.032600,6.836700,-2.162700,0.429900,9.915300,-903.000000,-179.500000,4137.250000
1730861909599,-5.012200,-2.608100,0.379500,-1.881800,0.513700,9.833900,-785.750000,-214.500000,4106.000000
1730861909618,-6.938700,-5.665300,-3.195900,-2.001600,0.000500,9.678800,-835.750000,0.250000,4041.250000
1730861909638,-9.028500,-4.861200,-3.755100,-1.429200,0.847800,9.774600,-628.000000,459.000000,4044.250000
1730861909658,-7.012200,-5.657100,0.906100,-1.945900,1.706400,9.345300,-812.500000,712.500000,3902.000000
1730861909678,-3.044800,-2.914200,4.783600,-2.559000,0.838800,9.019600,-1068.500000,350.250000,3766.000000
1730861909698,1.844800,1.053000,1.465300,-2.577600,0.240100,8.805800,-986.250000,-17.500000,3798.750000
1730861909718,4.277500,2.395900,-1.600000,-2.186600,0.416100,9.643500,-913.000000,-173.750000,4026.500000
1730861909739,2.363200,1.379500,-3.428500,-1.738700,0.045500,9.821900,-726.000000,-19.000000,4101.000000
1730861909759,-1.738700,0.644800,-2.726500,-1.553700,0.529800,9.762000,-654.500000,168.000000,4016.000000
1730861909778,-3.118300,0.232600,-1.387700,-2.014800,0.254400,9.512400,-841.250000,106.250000,3971.750000
1730861909798,-3.036700,0.338700,-1.844800,-2.566200,0.393900,9.488400,-1071.500000,-164.500000,3961.750000
1730861909818,-1.289700,4.277500,-5.146900,-2.760800,0.650200,8.993800,-1152.750000,-271.500000,3755.250000
1730861909838,0.118300,8.359100,-8.302000,-2.074600,0.436400,9.148900,-866.250000,182.250000,3820.000000
1730861909858,2.473400,7.881600,-7.624400,-1.123800,1.402800,9.918900,-469.250000,585.750000,4141.500000
1730861909878,3.771400,4.910200,0.432600,-1.090300,1.230400,9.959600,-455.250000,513.750000,4158.500000
1730861909898,2.983600,2.371400,4.559100,-1.468700,0.577100,9.659100,-613.250000,-241.000000,4033.000000
1730861909918,0.126500,0.967300,1.636700,-2.093200,0.984900,9.937500,-874.000000,-539.250000,4110.500000
1730861909938,-2.934600,0.065300,-4.926500,-2.328500,0.734600,9.646500,-972.250000,-306.750000,4027.750000
1730861909958,-5.710200,0.265300,-7.730600,-1.504600,0.227500,9.715300,-628.250000,-95.000000,4056.500000
1730861909978,-6.959100,-2.689700,-8.742800,-1.196300,0.641200,9.814100,-459.750000,382.750000,4048.250000
1730861909998,-5.408100,-5.261200,-4.400000,-1.499800,0.816700,9.319000,-626.250000,341.000000,3891.000000
1730861910018,-2.979500,-3.575500,-2.599900,-2.104600,0.573000,9.185400,-878.750000,239.250000,3835.250000
1730861910038,0.151000,0.248900,-3.297900,-2.362000,0.001100,9.432700,-1095.500000,-2.500000,3897.750000
1730861910057,0.726500,2.497900,-4.828500,-2.197400,0.209500,9.678800,-917.500000,-87.500000,4041.250000
1730861910078,0.248900,3.706100,-5.159100,-1.648300,0.186800,9.598000,-688.250000,78.000000,4007.500000
1730861910098,1.946900,0.183600,-2.514200,-1.180700,0.881300,9.618300,-498.000000,416.750000,4054.750000
1730861910118,3.938700,-1.473400,0.004000,-1.836900,0.152000,9.759700,-767.000000,63.500000,4075.000000
1730861910138,3.085700,0.706100,0.089700,-2.144700,0.772300,10.010500,-895.500000,-322.500000,4179.750000
1730861910158,-2.824400,-1.032600,-4.265300,-1.935700,0.895700,9.972200,-808.250000,-374.000000,4163.750000
1730861910178,-7.428500,-2.077500,-6.514200,-1.543500,0.317900,9.720100,-644.500000,-132.750000,4058.500000
1730861910198,-9.861200,-2.812200,-6.693800,-1.648300,0.336500,9.532100,-688.250000,140.500000,3980.000000
1730861910218,-5.628500,-3.338700,-4.257100,-1.949500,0.547200,9.254300,-814.000000,228.500000,3864.000000
1730861910238,0.689700,-2.032600,-2.942800,-1.786000,0.560400,9.061500,-745.750000,234.000000,3783.500000
1730861910257,1.951000,0.338700,-1.420400,-1.713000,0.222100,8.969300,-715.250000,-35.250000,3775.250000
1730861910276,2.351000,1.726500,-1.318300,-1.689000,0.132900,9.332700,-705.250000,-55.500000,3896.750000
1730861910297,0.175500,1.918300,-2.151000,-1.755500,0.043700,9.593200,-733.000000,-18.250000,4005.500000
1730861910317,-1.738700,1.640800,-3.024400,-1.741700,0.019100,9.894400,-652.750000,46.500000,4170.750000
1730861910337,-4.151000,0.730600,-3.236700,-1.371100,0.240100,9.810000,-572.500000,100.250000,4096.000000
1730861910357,-4.448900,-2.310200,-3.379500,-1.654900,0.331100,9.314200,-691.000000,138.250000,3889.000000
1730861910377,-4.759100,0.563200,-2.808100,-1.675300,0.013700,8.938800,-717.500000,-64.000000,3714.750000
1730861910397,-3.057100,1.967300,-3.628500,-1.890800,0.173600,8.874700,-789.500000,72.500000,3705.500000
1730861910417,-1.440800,4.220400,-4.591800,-2.182400,0.006500,9.186600,-911.250000,2.750000,3835.750000
1730861910437,-1.734600,6.253000,-5.563200,-1.778300,0.103500,9.481200,-617.750000,163.000000,3959.000000
1730861910457,-2.293800,5.053000,-4.587700,-1.099300,0.654400,9.893200,-459.000000,273.250000,4130.750000
1730861910477,0.795900,1.375500,-2.648900,0.942400,0.462200,10.130900,-393.500000,193.000000,4230.000000
1730861910497,0.571400,-4.269300,-1.179500,-1.454300,0.210100,9.804000,-607.250000,87.750000,4093.500000
1730861910517,0.771400,-4.869300,-1.616300,-1.722000,0.040700,9.502200,-719.000000,-17.000000,3967.500000
1730861910537,-3.130600,-3.697900,-2.587700,-1.767500,0.090400,9.349500,-738.000000,37.750000,3903.750000
1730861910557,-4.151000,-1.351000,-2.453000,-1.874100,0.168800,9.217200,-782.500000,-70.500000,3848.500000
1730861910577,-4.126500,0.151000,-3.755100,-2.023100,0.102900,9.280100,-844.750000,-43.000000,3874.750000
1730861910597,-3.975500,2.685700,-3.812200,-1.730400,0.408300,9.299200,-722.500000,200.250000,3928.250000
1730861910616,-1.187700,3.179500,-1.746900,-1.716000,0.304700,9.638700,-716.500000,127.250000,4024.500000
1730861910636,0.391800,2.089700,-1.110200,-1.580100,0.070000,9.825500,-659.750000,29.250000,4102.500000
1730861910656,0.351000,0.077500,0.563200,-1.498000,0.329300,9.927300,-651.250000,118.500000,4084.750000
1730861910676,-1.685700,-1.710200,0.220400,-1.681900,0.035900,9.689000,-702.250000,15.000000,4045.500000
1730861910696,-1.902000,-2.510200,-1.530600,-1.689600,0.131100,9.694400,-705.500000,54.750000,4047.750000
1730861910716,-1.759100,-1.040800,-2.669300,-1.657900,0.395700,9.536300,-808.500000,70.750000,3927.250000
1730861910736,-5.183600,4.093800,-2.942800,-2.239900,0.278400,9.404000,-935.250000,-116.250000,3926.500000
1730861910756,-7.951000,6.685700,-5.004000,-1.616000,0.083800,9.839300,-674.750000,-35.000000,4108.250000
1730861910776,-4.028500,0.089700,-3.559100,-1.174100,0.312500,9.557300,-491.000000,171.500000,4016.750000
1730861910796,-1.138700,-3.114200,-2.085700,-1.511200,0.313700,9.141100,-631.000000,131.000000,3816.750000
1730861910816,0.718300,-1.510200,-1.526500,-1.687800,0.293900,9.282400,-704.750000,122.750000,3875.750000
1730861910836,-2.693800,2.093800,-2.032600,-1.651300,0.073000,9.357900,-689.500000,-30.500000,3907.250000
1730861910856,-4.559100,2.922400,-2.840800,-1.501000,0.094600,9.433300,-626.750000,39.500000,3938.750000
1730861910876,-4.506100,2.351000,-2.808100,-1.497400,0.121500,9.468100,-625.250000,50.750000,3953.250000
1730861910896,-1.987700,0.604000,-3.151000,-1.381900,0.288000,9.419000,-577.000000,120.250000,3932.750000
1730861910916,-1.126500,0.538700,-2.808100,-1.326800,0.441800,9.335100,-554.000000,184.500000,3897.750000
1730861910936,-1.285700,0.187700,-3.224400,-1.397400,0.247800,9.377600,-583.500000,129.500000,3952.500000
1730861910955,-3.763200,2.204000,-2.865300,-1.568100,0.262200,9.590200,-654.750000,109.500000,4004.250000
1730861910975,-4.016300,3.004000,-2.951000,-1.616000,0.225100,9.848300,-674.750000,-94.000000,4112.000000
1730861910995,-3.416300,1.065300,-4.375500,-1.361500,0.010100,10.170400,-591.250000,78.750000,4203.000000
1730861911015,-3.297900,0.510200,-4.053000,-1.583100,0.144200,9.503400,-661.000000,60.250000,3968.000000
1730861911035,-6.057100,3.077500,-4.391800,-1.133400,0.420900,9.231600,-473.250000,175.750000,3854.500000
1730861911055,-7.640800,4.057100,-2.281600,0.963900,0.683100,9.011800,-463.750000,281.750000,3738.000000
1730861911075,-6.477500,4.685700,-1.983600,-1.302800,0.578300,9.387200,-544.000000,241.500000,3919.500000
1730861911095,-3.502000,3.657100,-2.542800,-1.322600,0.374200,9.863200,-552.250000,156.250000,4118.250000
1730861911115,-1.216300,2.048900,-4.408100,-1.609400,0.193900,9.778200,-692.250000,-39.250000,4048.500000
1730861911135,-3.334600,4.342800,-5.473400,-1.178900,0.344800,9.731500,-492.250000,144.000000,4063.250000
1730861911155,-5.155100,4.828500,-4.612200,-1.067500,0.252000,9.965600,-445.750000,105.250000,4161.000000
1730861911175,-7.155100,2.444800,-3.681600,-1.404600,0.112500,9.895000,-586.500000,47.000000,4131.500000
1730861911195,-7.151000,1.506100,-4.212200,-1.207000,0.470600,9.749500,-504.000000,196.500000,4070.750000
1730861911215,-4.783600,0.669300,-4.253000,-1.016000,0.828600,9.718300,-424.250000,346.000000,4057.750000
1730861911235,0.253000,-2.330600,-2.853000,-1.340000,0.570600,9.384200,-559.500000,238.250000,3918.250000
1730861911255,-1.044800,0.975500,-2.934600,-1.203400,0.356200,9.524900,-502.500000,148.750000,3977.000000
1730861911274,-3.355100,0.436700,-2.518300,-1.215400,0.144200,9.660900,-507.500000,42.000000,4061.750000
1730861911294,-7.048900,0.616300,-3.008100,-1.381300,0.177200,9.694400,-576.750000,74.000000,4047.750000
1730861911314,-8.836700,0.134600,-3.922400,-1.074100,0.670600,9.523700,-448.500000,280.000000,3976.500000
1730861911334,-7.416300,0.893800,-4.293800,0.984900,0.828600,9.332100,-454.000000,396.500000,3890.750000
1730861911355,-2.526500,-1.257100,-3.379500,-1.275300,0.887300,9.325000,-532.500000,370.500000,3893.500000
1730861911374,0.195900,0.461200,-2.142800,-1.315400,0.512500,9.362700,-549.250000,214.000000,3909.250000
1730861911394,0.142800,0.489700,-2.065300,-1.403400,0.290900,9.470500,-583.500000,134.250000,3981.500000
1730861911414,-1.489700,1.420400,-2.285700,-1.273500,0.374200,9.696200,-531.750000,156.250000,4048.500000
1730861911434,-2.910200,1.248900,-2.208100,-1.109400,0.746000,9.756700,-463.250000,311.500000,4073.750000
1730861911453,-3.530600,0.787700,0.004000,-1.111200,1.010000,9.424400,-503.250000,405.750000,3930.250000
1730861911474,-1.832600,0.673400,0.751000,-1.339400,0.671800,9.323200,-559.250000,280.500000,3892.750000
1730861911494,0.134600,1.881600,0.861200,-1.566900,0.325100,9.663900,-654.250000,135.750000,4035.000000
1730861911514,0.665300,2.963200,-1.681600,-1.120200,0.052000,9.933300,-467.750000,21.750000,4147.500000
1730861911534,0.620400,1.020400,-3.040800,0.934000,0.191000,10.013500,-390.000000,79.750000,4181.000000
1730861911554,-1.742800,-1.000000,-3.938700,-1.069900,0.361000,10.024300,-446.750000,150.750000,4185.500000
1730861911574,-2.926500,0.742800,-4.302000,-1.172300,0.597500,9.868000,-489.500000,249.500000,4120.250000
1730861911593,-2.673400,0.546900,-3.461200,-1.067500,0.486700,9.592600,-445.750000,203.250000,4005.250000
1730861911614,-3.077500,0.432600,-3.126500,-1.255500,0.474200,9.444100,-524.250000,287.250000,3934.500000
1730861911634,-2.416300,0.302000,-2.224400,-1.111200,0.525700,9.429100,-464.000000,219.500000,3937.000000
1730861911653,-1.767300,0.089700,-2.061200,-1.120200,0.341800,9.520800,-467.750000,142.750000,3975.250000
1730861911673,-1.653000,0.448900,-2.481600,-1.171100,0.374800,9.678200,-477.250000,217.250000,4041.750000
1730861911693,-1.938700,0.791800,-3.518300,0.911900,0.740600,9.621900,-380.750000,309.250000,4017.500000
1730861911713,-1.024400,0.526500,-2.669300,-1.025600,0.844200,9.425500,-428.250000,352.500000,3935.500000
1730861911733,0.473400,0.359100,0.751000,-1.071100,0.874100,9.320200,-462.000000,232.750000,3875.250000
1730861911752,1.204000,0.016300,0.212200,-1.138200,0.274200,9.402800,-475.250000,114.500000,3926.000000
1730861911773,0.110200,0.204000,0.493800,-1.288500,0.082000,9.792600,-538.000000,-34.250000,4088.750000
1730861911793,-3.191800,0.734600,-1.848900,-1.214200,0.173600,9.836300,-476.250000,130.250000,4113.750000
1730861911813,-4.134600,-1.020400,-1.848900,-1.217200,0.483700,9.629700,-508.250000,202.000000,4020.750000
1730861911833,-3.130600,0.465300,-1.942800,-1.201100,0.677700,9.775200,-501.500000,283.000000,4081.500000
1730861911853,-1.424400,0.253000,0.338700,0.942400,0.355000,9.652500,-393.500000,148.250000,4030.250000
1730861911873,-2.191800,-1.277500,0.420400,-1.057400,0.235900,9.836900,-441.500000,98.500000,4107.250000
1730861911893,-2.591800,-3.330600,-1.346900,-1.147800,0.317300,9.731500,-479.250000,132.500000,4063.250000
1730861911913,-2.273400,-2.297900,-1.093800,-1.284900,0.722000,9.617700,-536.500000,301.500000,4015.750000
1730861911933,0.734600,0.359100,0.236700,-1.260900,0.596300,9.447700,-526.500000,249.000000,3944.750000
1730861911951,0.448900,0.942800,0.151000,-1.261500,0.301100,9.398600,-462.750000,60.250000,3933.500000
1730861911972,-1.020400,0.848900,-1.538700,-1.157900,0.121500,9.541700,-483.500000,50.750000,3984.000000
1730861911992,-2.061200,0.293800,-2.363200,-1.292700,0.042500,9.707600,-539.750000,17.750000,4053.250000
1730861912012,-2.612200,0.477500,-2.297900,-1.271100,0.155600,9.602200,-504.500000,125.750000,3973.250000
1730861912032,-1.702000,0.302000,-2.534600,-1.231000,0.454400,9.491400,-514.000000,189.750000,3963.000000
1730861912052,-1.069300,2.004000,-1.836700,-1.316600,0.831600,9.840500,-549.750000,347.250000,4108.750000
1730861912072,0.126500,1.763200,0.514200,0.906500,0.726200,9.870400,-332.750000,236.250000,4071.250000
1730861912092,0.040800,0.771400,0.836700,-1.016000,0.270000,9.501600,-424.250000,112.750000,3967.250000
1730861912112,-1.575500,1.918300,0.983600,-1.340000,0.144800,9.371700,-559.500000,60.500000,3913.000000
1730861912132,-3.881600,4.640800,0.318300,-1.176500,0.063400,9.399200,-413.250000,39.750000,3924.500000
1730861912152,-4.383600,4.489700,0.453000,0.907100,0.292100,9.528500,-378.750000,122.000000,3978.500000
1730861912172,-2.224400,3.004000,0.546900,-1.084900,0.304100,9.494400,-453.000000,127.000000,3964.250000
1730861912193,0.759100,3.036700,-1.563200,0.950800,0.240100,9.557300,-397.000000,100.250000,3990.500000
1730861912212,2.163200,1.889700,-2.555100,0.496300,0.366400,9.838100,-207.250000,153.000000,4107.750000
1730861912232,2.175500,-1.216300,-1.795900,0.288500,0.447800,9.839300,-120.500000,187.000000,4108.250000
1730861912251,0.697900,-3.848900,0.587700,0.816700,0.396300,9.604000,-341.000000,165.500000,4010.000000
1730861912272,-2.738700,-2.212200,1.012200,-1.498000,0.501100,9.386000,-625.500000,209.250000,3919.000000
1730861912291,-3.236700,1.146900,2.110200,0.962100,0.297500,9.552500,-401.750000,36.250000,3866.500000
1730861912311,-1.297900,0.134600,1.714200,0.565800,0.479000,9.568700,-236.250000,200.000000,3995.250000
1730861912331,1.200000,-1.812200,2.881600,-1.035800,0.189200,9.553100,-432.500000,79.000000,3988.750000
1730861912351,3.440800,-2.355100,2.024400,-1.301600,0.382000,9.451300,-482.500000,-213.000000,3959.000000
1730861912371,1.718300,-1.097900,0.840800,-1.000500,0.434000,9.846500,-417.750000,-181.250000,4111.250000
1730861912390,0.624400,-1.387700,-2.551000,0.705300,0.116700,10.142300,-294.500000,48.750000,4234.750000
1730861912411,-2.400000,-2.204000,-1.069300,0.643600,0.557400,10.105100,-303.000000,269.500000,4164.500000
1730861912431,-3.134600,-1.518300,1.428500,0.808300,0.474800,9.613600,-337.500000,198.250000,4014.000000
1730861912451,-1.306100,-1.873400,2.065300,0.963300,0.177800,9.436300,-402.250000,74.250000,3940.000000
1730861912471,0.906100,-1.089700,0.812200,-1.187900,0.071200,9.254300,-487.000000,-80.750000,3864.000000
1730861912491,0.559100,0.465300,0.142800,-1.211200,0.307100,9.561500,-505.750000,-128.250000,3992.250000
1730861912511,0.534600,1.453000,-1.404000,-1.251900,0.235900,9.754900,-522.750000,-98.500000,4073.000000
1730861912531,-2.844800,1.408100,-2.746900,0.631600,0.255600,10.158400,-263.750000,106.750000,4241.500000
1730861912551,-3.024400,0.828500,-1.093800,0.601100,0.493900,9.809400,-251.000000,206.250000,4095.750000
1730861912571,-3.726500,0.742800,1.314200,0.820800,0.299300,9.357900,-342.750000,125.000000,3907.250000
1730861912591,-3.114200,1.269300,2.620400,-1.065100,0.038300,9.368700,-444.750000,16.000000,3911.750000
1730861912610,-1.595900,2.322400,1.726500,-1.098700,0.011900,9.698000,-458.750000,-5.000000,4049.250000
1730861912629,0.567300,2.457100,1.110200,0.935200,0.037700,9.762000,-326.500000,-21.500000,4074.750000
1730861912650,0.281600,1.742800,0.861200,0.765200,0.067000,9.718900,-319.500000,-28.000000,4058.000000
1730861912670,0.746900,0.024400,0.530600,0.829200,0.189200,9.724300,-346.250000,-79.000000,4060.250000
1730861912690,0.620400,0.644800,0.481600,-1.090300,0.289700,9.707600,-473.000000,-183.500000,4042.250000
1730861912710,-3.355100,0.816300,0.363200,-1.196300,0.453800,9.748300,-499.500000,-189.500000,4070.250000
1730861912730,-5.244800,2.057100,-1.326500,-1.089700,0.224500,9.854300,-455.000000,-93.750000,4114.500000
1730861912750,-3.555100,1.244800,-2.273400,0.808900,0.103500,9.979400,-282.500000,95.000000,4154.000000
1730861912770,-2.338700,0.248900,-1.151000,0.596900,0.307700,9.720700,-249.250000,128.500000,4058.750000
1730861912790,-1.044800,-1.571400,0.065300,0.693900,0.117900,9.642300,-289.750000,49.250000,4026.000000
1730861912810,0.408100,0.142800,0.130600,-1.174100,0.055000,10.133300,-525.000000,6.000000,4231.000000
1730861912830,-1.865300,2.110200,0.718300,0.911300,0.029900,10.683500,-380.500000,-12.500000,4460.750000
1730861912850,-4.032600,0.926500,-1.653000,0.463400,0.161000,10.988900,-193.500000,-67.250000,4588.250000
1730861912870,-4.624400,-5.987700,-2.310200,0.714300,0.092800,10.390700,-298.250000,38.750000,4338.500000
1730861912890,-4.228500,-8.485700,-1.742800,0.807700,0.076600,9.793200,-337.250000,32.000000,4089.000000
1730861912910,-4.485700,-8.959100,0.681600,0.934600,0.306500,9.441700,-390.250000,128.000000,3942.250000
1730861912930,-4.795900,-6.938700,1.934600,-1.033400,0.096300,9.156100,-431.500000,40.250000,3823.000000
1730861912950,-5.004000,-4.869300,2.424400,-1.396800,0.161600,9.009400,-583.250000,-67.500000,3761.750000
1730861912970,-5.314200,-1.751000,1.420400,-1.669900,0.354400,9.067500,-697.250000,-148.000000,3838.500000
1730861912990,-3.457100,1.995900,-2.812200,-1.280700,0.351400,9.436300,-534.750000,-146.750000,3940.000000
1730861913009,-2.697900,1.391800,-4.832600,0.910100,0.096900,9.752500,-380.000000,-40.500000,4072.000000
1730861913028,-3.142800,0.530600,-4.616300,0.780100,0.334700,9.739300,-308.000000,184.000000,4029.000000
1730861913049,-3.020400,-2.171400,-1.820400,0.823200,0.565800,9.489000,-343.750000,236.250000,3962.000000
1730861913069,-2.591800,-2.208100,0.097900,0.844800,0.290300,9.408200,-352.750000,121.250000,3928.250000
1730861913089,-1.897900,-2.853000,0.416300,0.998700,0.100500,9.407600,-448.500000,10.250000,3911.500000
1730861913109,0.391800,-3.248900,0.579500,-1.199300,0.109500,9.262700,-500.750000,-45.750000,3867.500000
1730861913129,0.065300,-1.979500,-1.681600,-1.250700,0.083800,9.262700,-522.250000,-35.000000,3867.500000
1730861913149,0.600000,0.028500,-2.963200,-1.072900,0.053200,9.509400,-393.500000,8.250000,3970.500000
1730861913169,-1.383600,0.302000,-2.436700,0.840600,0.001700,9.607600,-351.000000,0.750000,4011.500000
1730861913189,-2.240800,-1.473400,-1.644800,-1.000500,0.089800,9.521400,-417.750000,-37.500000,3975.500000
1730861913209,-1.661200,-1.338700,-2.020400,-1.307600,0.079600,9.211200,-546.000000,-33.250000,3846.000000
1730861913229,0.453000,0.330600,-2.657100,-1.328000,0.048400,9.372900,-554.500000,20.250000,3913.500000
1730861913249,1.342800,1.375500,-3.179500,-1.125600,0.105300,9.602200,-470.000000,44.000000,4009.250000
1730861913268,2.400000,0.171400,-3.138700,0.979500,0.098100,9.723700,-409.000000,41.000000,4060.000000
1730861913288,1.869300,0.044800,-2.518300,0.955600,0.210700,9.801600,-399.000000,88.000000,4092.500000
1730861913307,0.975500,-1.089700,-1.808100,0.878900,0.170600,9.785400,-367.000000,37.750000,4068.000000
1730861913328,-2.179500,-1.534600,0.110200,0.890900,0.037700,9.631500,-372.000000,-15.750000,4021.500000
1730861913348,-4.044800,-2.232600,0.175500,-1.135200,0.037700,9.456700,-474.000000,-15.750000,3948.500000
1730861913368,-4.502000,0.714200,0.551000,-1.359700,0.103500,9.396800,-556.750000,46.750000,3942.250000
1730861913388,-1.938700,1.644800,-1.620400,-1.043000,0.062800,9.535100,-435.500000,26.250000,3981.250000
1730861913408,0.065300,1.444800,-1.502000,-1.002300,0.044300,9.736300,-418.500000,-18.500000,4065.250000
1730861913428,0.783600,0.616300,-1.546900,-1.107600,0.096900,9.898000,-463.000000,-51.000000,4137.500000
1730861913448,0.363200,0.000000,-1.555100,0.933400,0.193900,9.830300,-389.750000,-81.000000,4104.500000
1730861913468,-2.510200,0.542800,-1.004000,-1.027400,0.222100,9.799800,-429.000000,-92.750000,4091.750000
1730861913488,-3.710200,0.089700,-1.044800,-1.238200,0.124500,9.871000,-509.000000,-27.500000,4121.500000
1730861913508,-3.069300,0.032600,-1.302000,-1.040000,0.052600,9.905200,-434.250000,-22.000000,4135.750000
1730861913528,-2.395900,0.693800,-1.187700,-1.041800,0.062200,9.874000,-435.000000,-26.000000,4122.750000
1730861913548,-2.477500,-1.297900,-1.314200,-1.192100,0.240600,9.749500,-497.750000,-100.500000,4070.750000
1730861913568,-3.546900,0.102000,-2.126500,-1.152000,0.198100,9.728500,-481.000000,-82.750000,4062.000000
1730861913588,-4.677500,0.710200,-2.983600,0.981300,0.085600,9.691400,-409.750000,-35.750000,4046.500000
1730861913608,-6.404000,0.436700,-2.297900,0.880700,0.171200,9.562100,-367.750000,71.500000,3992.500000
1730861913627,-5.922400,0.183600,0.853000,0.899900,0.217300,9.396200,-375.750000,90.750000,3923.250000
1730861913648,-3.383600,-1.057100,0.236700,-1.134000,0.000000,9.238700,-537.500000,-65.250000,3851.500000
1730861913668,-1.089700,0.893800,-1.502000,-1.535800,0.365800,9.445300,-641.250000,-152.750000,3943.750000
1730861913688,-1.751000,3.073400,-3.579500,-1.290900,0.447800,9.695000,-539.000000,-187.000000,4048.000000
1730861913707,-2.591800,3.526500,-4.926500,-1.063300,0.196900,9.871000,-424.750000,-22.750000,4126.250000
1730861913727,-4.171400,2.816300,-4.253000,0.810100,0.041300,9.835700,-338.250000,17.250000,4106.750000
1730861913747,-4.546900,1.534600,-3.416300,0.840600,0.078400,9.661500,-351.000000,32.750000,4034.000000
1730861913767,-3.285700,0.828500,-2.208100,0.909500,0.112500,9.485400,-422.000000,36.000000,3955.250000
1730861913786,-3.375500,1.293800,-1.632600,0.983100,0.162200,9.521900,-410.500000,67.750000,3975.750000
1730861913807,-1.885700,0.306100,-1.657100,0.716700,0.031100,9.467500,-299.250000,13.000000,3953.000000
1730861913827,-1.624400,0.053000,-1.608100,0.796900,0.058600,9.566900,-370.750000,-35.000000,3994.500000
1730861913847,-2.342800,0.473400,-2.334600,0.861600,0.114900,9.605800,-359.750000,-48.000000,4010.750000
1730861913867,-3.497900,0.342800,-2.820400,0.840000,0.123900,9.548300,-350.750000,-51.750000,3986.750000
1730861913887,-4.518300,1.424400,-3.102000,0.862800,0.124500,9.485400,-360.250000,52.000000,3960.500000
1730861913907,-4.579500,2.285700,-3.138700,0.851400,0.228700,9.514200,-355.500000,95.500000,3972.500000
1730861913927,-4.224400,2.693800,-2.734600,0.750800,0.383800,9.608800,-313.500000,160.250000,4012.000000
1730861913947,-2.673400,1.946900,-1.755100,0.369400,0.283200,9.979400,-154.250000,118.250000,4166.750000
1730861913967,-1.069300,-1.359100,-1.644800,0.781900,0.271800,10.080000,-326.500000,113.500000,4208.750000
1730861913987,-1.893800,-1.093800,0.081600,0.799300,0.001700,9.851300,-333.750000,-78.250000,4073.500000
1730861914007,-4.502000,-1.163200,0.783600,-1.085500,0.159200,9.623100,-453.250000,-66.500000,4018.000000
1730861914025,-4.934600,0.122400,-1.600000,-1.050200,0.013100,9.564500,-438.500000,5.500000,3993.500000
1730861914046,-4.138700,0.130600,-2.522400,0.883700,0.101700,9.553100,-315.750000,31.000000,3983.000000
1730861914066,-3.636700,0.048900,-2.534600,0.864600,0.031100,9.566300,-361.000000,13.000000,3994.250000
1730861914086,-3.310200,0.118300,-2.702000,0.942400,0.223900,9.647700,-393.500000,93.500000,4028.250000
1730861914106,-1.187700,0.151000,-2.257100,0.881900,0.124500,9.644700,-370.250000,29.000000,4027.250000
1730861914126,-1.746900,0.016300,-2.461200,0.963300,0.026300,9.798000,-402.250000,-11.000000,4091.000000
1730861914146,-2.232600,0.167300,-2.877500,0.884900,0.033500,9.899800,-369.500000,-14.000000,4133.500000
1730861914166,-3.583600,-1.383600,-2.906100,0.780100,0.063400,10.061400,-300.250000,193.500000,4201.000000
1730861914186,-2.844800,-2.677500,-1.522400,0.427500,0.937000,9.897400,-178.500000,391.250000,4132.500000
1730861914206,-1.979500,-3.285700,0.685700,0.552000,0.410700,9.478200,-230.500000,171.500000,3957.500000
1730861914226,-4.469300,0.571400,0.530600,-1.005900,0.128100,9.430300,-420.000000,53.500000,3937.500000
1730861914246,-5.008100,1.012200,0.983600,0.759800,0.086200,9.363900,-317.250000,36.000000,3909.750000
1730861914266,-5.355100,1.840800,-1.073400,0.595700,0.212500,9.322600,-248.750000,88.750000,3892.500000
1730861914286,-4.608100,1.481600,0.861200,0.876500,0.381400,9.372300,-366.000000,159.250000,3913.250000
1730861914305,-2.220400,1.000000,0.673400,0.934600,0.167600,9.489000,-390.250000,70.000000,3962.000000
1730861914325,-1.228500,1.844800,0.061200,0.952000,0.199900,9.693200,-397.500000,-125.750000,4104.000000
1730861914345,-3.040800,1.640800,-1.065300,0.808300,0.182000,9.956000,-337.500000,-76.000000,4157.000000
1730861914365,-3.187700,0.000000,-1.930600,0.814300,0.054400,9.984800,-340.000000,22.750000,4169.000000
1730861914385,-2.812200,-1.008100,-2.853000,0.881300,0.216700,9.864400,-316.750000,143.500000,4093.000000
1730861914405,-3.571400,-1.085700,-2.510200,0.553800,0.372400,9.676400,-231.250000,155.500000,4040.250000
1730861914425,-4.163200,0.734600,-1.028500,0.560400,0.546600,9.642300,-234.000000,228.250000,4026.000000
1730861914445,-5.089700,-1.893800,0.628500,0.784900,0.043700,9.835700,-370.000000,47.000000,4152.500000
1730861914465,-4.591800,-2.653000,-1.355100,0.889700,0.486100,9.642300,-371.500000,203.000000,4026.000000
1730861914485,-5.404000,-1.212200,0.567300,0.575400,0.371200,9.614800,-240.250000,155.000000,4014.500000
1730861914505,-5.861200,-1.048900,0.506100,0.940600,0.227500,9.613600,-459.000000,120.000000,4014.000000
1730861914525,-6.085700,1.097900,-1.081600,0.998700,0.141900,9.683600,-417.000000,59.250000,4043.250000
1730861914545,-5.697900,0.955100,-2.730600,0.824400,0.106500,9.893200,-344.250000,-44.500000,4130.750000
1730861914565,-4.146900,-2.261200,-4.310200,0.741200,0.326900,10.065600,-309.500000,136.500000,4202.750000
1730861914585,-3.669300,-3.877500,-4.159100,0.764600,0.302300,9.821900,-319.250000,126.250000,4101.000000
1730861914605,-4.840800,-3.310200,-3.640800,0.774100,0.537000,9.431500,-323.250000,224.250000,3938.000000
1730861914625,-6.885700,0.342800,-2.048900,0.797500,0.693300,9.186000,-333.000000,289.500000,3835.500000
1730861914645,-6.783600,0.861200,-1.334600,0.911900,0.615500,9.354300,-380.750000,257.000000,3905.750000
1730861914664,-5.877500,1.359100,-1.461200,0.981900,0.499900,9.648300,-346.000000,242.000000,4023.250000
1730861914684,-5.428500,1.436700,-1.995900,0.598700,0.981900,9.399800,-250.000000,410.000000,3924.750000
1730861914704,-5.575500,2.465300,0.469300,0.494500,0.960400,9.198600,-206.500000,401.000000,3840.750000
1730861914724,-5.787700,3.616300,0.187700,0.877100,0.560400,9.199800,-398.000000,190.250000,3864.250000
1730861914744,-5.861200,5.457100,-1.820400,0.855600,0.492100,9.444700,-357.250000,205.500000,3943.500000
1730861914764,-4.163200,4.579500,-2.575500,0.508900,0.611900,9.711200,-212.500000,255.500000,4054.750000
1730861914784,0.604000,0.032600,-2.493800,0.657400,0.511900,9.851900,-341.000000,145.500000,4154.000000
1730861914804,0.485700,0.016300,-2.342800,0.981300,0.399300,10.099100,-409.750000,166.750000,4216.750000
1730861914824,-2.481600,1.195900,-1.995900,0.515500,0.514900,10.206900,-215.250000,215.000000,4261.750000
1730861914844,-5.404000,0.461200,0.661200,0.621500,0.463400,9.948900,-294.000000,263.000000,4154.000000
1730861914863,-6.020400,1.200000,0.644800,0.789700,1.017800,9.236300,-329.750000,425.000000,3856.500000
1730861914884,-5.281600,5.085700,0.016300,0.723800,1.110000,9.058500,-302.250000,463.500000,3782.250000
1730861914904,-1.755100,6.975500,-1.175500,0.662200,0.402300,9.156700,-276.500000,168.000000,3823.250000
1730861914924,0.428500,6.318300,-2.799900,0.787900,0.368200,9.875800,-329.000000,153.750000,4123.500000
1730861914944,1.314200,4.502000,-3.922400,0.314300,0.148400,10.181800,-131.250000,62.000000,4251.250000
1730861914963,-1.420400,1.469300,-2.171400,0.102300,1.178900,9.836900,42.750000,492.250000,4107.250000
1730861914983,-2.187700,0.326500,0.351000,0.194500,0.468200,9.840500,-81.250000,195.500000,4108.750000
1730861915004,-3.906100,-1.281600,0.971400,0.652600,0.356800,9.724300,-250.750000,198.250000,4069.500000
1730861915023,-3.232600,0.995900,-2.746900,0.464600,0.268200,9.950100,-194.000000,112.000000,4154.500000
1730861915044,-1.142800,-2.718300,-3.575500,0.376000,0.644200,9.877600,-157.000000,269.000000,4124.250000
1730861915063,0.061200,-3.767300,-1.571400,0.189200,1.104100,9.943500,-44.000000,417.250000,4111.750000
1730861915083,-2.485700,-2.869300,2.277500,0.264000,0.809500,9.616600,-110.250000,338.000000,4015.250000
1730861915103,-4.751000,-1.787700,3.959100,0.529200,0.343000,8.991500,-221.000000,143.250000,3754.250000
1730861915123,-7.681600,0.342800,2.555100,0.540000,0.314300,8.974100,-207.250000,172.000000,3804.750000
1730861915143,-6.987700,-1.967300,0.930600,0.481300,0.448400,9.359700,-201.000000,187.250000,3908.000000
1730861915163,-4.816300,-2.971400,0.024400,0.675300,1.067500,9.438100,-282.000000,445.750000,3940.750000
1730861915183,0.195900,0.461200,0.881600,0.419100,0.889100,9.427900,-166.000000,371.250000,3936.500000
1730861915203,1.546900,0.146900,1.563200,0.469400,0.549600,9.425000,-196.000000,229.500000,3935.250000
1730861915223,1.457100,0.816300,1.257100,0.651400,0.567600,9.750700,-272.000000,237.000000,4071.250000
1730861915243,0.567300,0.604000,0.167300,0.301100,0.325700,9.974000,-125.750000,136.000000,4164.500000
1730861915263,-2.514200,-1.971400,0.620400,0.678900,0.425700,10.073400,-283.500000,177.750000,4206.000000
1730861915283,-2.640800,-1.946900,-1.322400,0.701700,0.676500,9.776400,-293.000000,282.500000,4082.000000
1730861915303,-2.081600,0.179500,0.126500,0.692700,0.538800,9.703400,-289.250000,225.000000,4051.500000
1730861915323,-1.363200,0.142800,0.542800,0.511900,0.381400,9.765000,-213.750000,159.250000,4077.250000
1730861915343,0.171400,-1.102000,0.812200,0.512500,0.465800,9.978200,-151.000000,256.750000,4254.500000
1730861915363,0.722400,-3.861200,1.440800,0.063400,0.428100,10.589500,-26.500000,178.750000,4421.500000
1730861915383,-4.599900,-7.636700,2.142800,0.243600,0.302900,10.396700,-101.750000,126.500000,4341.000000
1730861915403,-7.800000,-9.640800,2.269300,0.393900,0.583100,10.115300,-244.750000,215.250000,4200.500000
1730861915423,-9.342800,-10.567300,2.534600,-1.241200,0.222100,9.608800,-518.250000,92.750000,4012.000000
1730861915441,-8.685700,-5.848900,0.269300,-1.076500,0.775300,9.212400,-449.500000,323.750000,3846.500000
1730861915462,-6.318300,-7.016300,2.171400,0.026900,1.242400,9.584200,-288.750000,381.500000,4059.250000
1730861915482,-6.746900,-8.077500,2.265300,-1.242400,0.438200,9.830300,-518.750000,183.000000,4104.500000
1730861915502,-6.436700,-7.640800,0.812200,-1.071700,1.026200,9.978800,-447.500000,428.500000,4166.500000
1730861915522,-8.526500,-8.710200,0.595900,-1.259700,0.271200,10.492500,-516.000000,-113.250000,4381.000000
1730861915542,-12.212200,-10.612200,-1.677500,0.968100,0.826800,9.852500,-404.250000,345.250000,4113.750000
1730861915562,-13.779500,-7.273400,1.240800,0.435800,1.656700,9.159700,-182.000000,691.750000,3824.500000
1730861915582,-11.436700,-8.461200,3.546900,0.973500,1.318400,9.064500,-406.500000,550.500000,3784.750000
1730861915602,-9.489700,-7.363200,3.514200,-1.198700,1.074700,8.969900,-500.500000,448.750000,3745.250000
1730861915622,-7.538700,-6.224400,2.653000,0.962700,0.925000,9.334500,-402.000000,386.250000,3927.000000
1730861915642,-8.191800,-7.608100,1.493800,-1.155500,1.072900,9.792600,-482.500000,448.000000,4088.750000
1730861915662,-11.224400,-7.873400,0.865300,-1.159100,1.253100,10.034500,-484.000000,523.250000,4189.750000
1730861915682,-11.873400,-7.783600,1.444800,-1.350100,1.309400,9.706400,-508.250000,546.500000,3916.000000
1730861915702,-9.261200,-7.395900,2.048900,-1.529200,1.394500,9.172900,-638.500000,582.250000,3830.000000
1730861915722,-6.555100,-8.644800,0.783600,-1.474700,1.822000,9.490800,-615.750000,760.750000,3962.750000
1730861915742,-4.681600,-10.236700,0.000000,-1.523800,1.337000,9.687200,-688.250000,512.000000,4057.000000
1730861915761,-3.522400,-10.302000,0.914200,-1.653100,1.520200,9.731500,-690.250000,634.750000,4063.250000
1730861915782,-1.906100,-11.061200,0.857100,-1.520200,1.594400,9.274100,-634.750000,665.750000,3872.250000
1730861915801,0.620400,-13.379500,0.840800,-1.405200,1.627400,9.040000,-584.500000,701.500000,3696.250000
1730861915821,1.702000,-15.836700,2.538700,-1.608200,1.887200,8.612400,-671.500000,788.000000,3596.000000
1730861915841,4.085700,-17.832600,5.269300,-1.659100,1.736900,8.810000,-692.750000,725.250000,3678.500000
1730861915861,4.526500,-23.371400,6.175500,-2.108800,0.571200,8.653200,-880.500000,238.500000,3613.000000
1730861915881,5.697900,-26.440800,4.975500,-1.998600,1.251300,8.784900,-834.500000,522.500000,3668.000000
1730861915901,9.432600,-26.702000,5.416300,-2.580000,0.956800,9.083100,-1077.250000,399.500000,3792.500000
1730861915921,12.432600,-22.342800,4.114200,-3.166800,1.012400,9.870400,-1322.250000,422.750000,4121.250000
1730861915941,11.012200,-18.873400,3.400000,-3.070400,0.759800,10.075800,-1282.000000,317.250000,4207.000000
1730861915961,7.873400,-16.216300,4.457100,-3.491900,0.950800,9.784800,-1458.000000,397.000000,3900.500000
1730861915981,6.828500,-10.073400,5.714200,-3.457200,1.032200,8.689100,-1443.500000,431.000000,3628.000000
1730861916001,8.828500,-7.840800,6.808100,-3.196100,0.598100,8.355600,-1334.500000,249.750000,3488.750000
1730861916021,10.232600,-8.257100,7.208100,-3.227200,0.496300,9.205200,-1303.750000,159.250000,3978.000000
1730861916041,7.877500,-11.808100,7.224400,-3.105100,0.386700,9.594400,-1296.500000,161.500000,4006.000000
1730861916061,5.008100,-13.832600,6.991800,-3.219500,0.164600,9.196800,-1344.250000,68.750000,3840.000000
1730861916081,3.804000,-12.114200,6.404000,-3.675700,0.248400,8.725600,-1629.750000,153.000000,3614.500000
1730861916101,7.551000,-8.391800,5.734600,-3.888900,0.340600,8.759700,-1623.750000,142.250000,3657.500000
1730861916121,10.134600,-6.457100,6.065300,-3.589500,0.147800,8.687300,-1498.750000,61.750000,3627.250000
1730861916141,11.604000,-6.195900,7.730600,-3.260800,0.002300,8.591500,-1440.250000,-54.000000,3661.250000
1730861916161,11.228500,-4.995900,8.028500,-3.875700,0.213700,9.104000,-1618.250000,-89.250000,3801.250000
1730861916181,10.816300,-3.885700,7.273400,-3.788300,0.447200,9.372300,-1581.750000,-186.750000,3913.250000
1730861916200,7.489700,-3.583600,6.783600,-3.643400,0.467000,9.120200,-1521.250000,-195.000000,3808.000000
1730861916219,6.612200,-2.914200,7.106100,-3.597900,0.411300,8.507100,-1502.250000,-171.750000,3552.000000
1730861916239,9.653000,-1.477500,7.910200,-3.692500,0.376000,8.055000,-1541.750000,-157.000000,3363.250000
1730861916260,17.857100,3.261200,9.138700,-3.820600,0.508300,8.560900,-1595.250000,-212.250000,3574.500000
1730861916280,20.073400,5.310200,9.742800,-3.627800,-1.032800,9.040500,-1514.750000,-431.250000,3774.750000
1730861916300,16.869300,4.469300,9.665300,-3.524200,-1.229200,9.587800,-1471.500000,-513.250000,4015.000000
1730861916320,9.848900,0.318300,9.257100,-3.520000,-1.204000,9.623100,-1469.750000,-502.750000,4018.000000
1730861916340,6.261200,0.600000,8.534600,-3.740400,-1.314200,9.423200,-1561.750000,-548.750000,3934.500000
1730861916360,4.795900,1.183600,7.469300,-3.798500,-1.231600,9.091400,-1588.750000,-480.000000,3671.250000
1730861916380,7.697900,6.836700,6.620400,-3.626600,-1.149000,8.490900,-1514.250000,-479.750000,3545.250000
1730861916400,11.628500,9.183600,6.093800,-3.206900,-1.542900,8.790300,-1339.000000,-644.250000,3670.250000
1730861916420,12.228500,8.673400,6.273400,-3.103300,-1.897400,9.020200,-1296.750000,-769.000000,3794.000000
1730861916440,9.877500,8.640800,6.632600,-3.391900,-1.881200,9.175900,-1416.250000,-785.500000,3831.250000
1730861916460,7.212200,9.155100,6.567300,-3.277500,-1.847100,9.260900,-1368.500000,-771.250000,3866.750000
1730861916480,5.514200,10.804000,7.751000,-3.351200,-1.754300,9.298600,-1475.250000,-692.500000,3864.500000
1730861916500,5.481600,15.706100,7.706100,-3.453000,-1.714800,9.369900,-1441.750000,-716.000000,3912.250000
1730861916520,6.244800,20.559100,7.212200,-3.120700,-1.760900,9.279500,-1303.000000,-735.250000,3874.500000
1730861916540,6.244800,24.216300,6.485700,-2.812900,-2.086000,9.201000,-1174.500000,-871.000000,3841.750000
1730861916559,5.857100,25.657100,5.167300,-2.808100,-2.310500,9.441700,-1172.500000,-964.750000,3942.250000
1730861916579,3.604000,25.587700,3.465300,-2.382400,-2.735100,9.502200,-994.750000,-1142.000000,3967.500000
1730861916599,0.706100,24.967300,1.804000,-2.137500,-2.499800,9.423200,-892.500000,-1043.750000,3934.500000
1730861916619,-2.081600,24.065300,1.979500,-2.115900,-2.276400,9.387800,-883.500000,-950.500000,3919.750000
1730861916639,-3.322400,24.657100,2.138700,-1.873500,-2.147700,9.333300,-782.250000,-832.750000,3847.500000
1730861916659,-5.359100,27.000000,0.530600,-1.665700,-2.016000,8.662700,-695.500000,-841.750000,3617.000000
1730861916678,-3.457100,27.926500,0.408100,-1.608200,-1.984800,8.343600,-671.500000,-828.750000,3483.750000
1730861916699,0.530600,28.502000,-1.208100,-1.611200,-2.027300,8.772900,-635.250000,-903.000000,3811.750000
1730861916719,3.444800,29.730600,-2.595900,-1.122600,-2.374600,9.607000,-468.750000,-991.500000,4011.250000
1730861916739,1.840800,29.640800,-2.779500,0.831600,-2.455400,9.882400,-347.250000,-1025.250000,4126.250000
1730861916759,0.510200,27.334600,-1.946900,0.553200,-2.597300,9.822500,-205.250000,-1093.250000,4058.500000
1730861916779,-4.420400,28.526500,-2.816300,0.374200,-2.604500,9.460900,-156.250000,-1087.500000,3950.250000
1730861916799,-5.857100,28.775500,-3.620400,0.235900,-2.390200,9.254900,-98.500000,-998.000000,3864.250000
1730861916818,-4.134600,26.608100,-4.383600,0.120300,-2.339300,9.295600,7.250000,-1002.250000,3916.500000
1730861916838,-4.269300,24.722400,-4.926500,0.268800,-2.293800,9.405800,112.250000,-957.750000,3927.250000
1730861916857,-5.024400,23.767300,-5.685700,0.454400,-2.148900,9.310600,189.750000,-897.250000,3887.500000
1730861916877,-3.048900,23.644800,-5.179500,0.760400,-2.318300,9.313000,260.500000,-968.000000,3888.500000
1730861916898,-2.922400,23.453000,-4.718300,0.648400,-2.454800,9.219600,270.750000,-1025.000000,3849.500000
1730861916918,-3.734600,23.163200,-4.987700,0.788500,-2.357200,9.278300,329.250000,-984.250000,3874.000000
1730861916938,-5.628500,21.477500,-5.261200,0.889100,-2.553000,9.302200,371.250000,-1066.000000,3884.000000
1730861916958,-7.146900,21.873400,-5.093800,0.836400,-2.208200,9.460300,349.250000,-922.000000,3950.000000
1730861916978,-8.044800,23.616300,-5.836700,1.119600,-2.348300,9.405800,467.500000,-916.500000,3894.250000
1730861916998,-11.926500,24.016300,-7.126500,1.411800,-2.156100,9.083700,589.500000,-900.250000,3792.750000
1730861917018,-12.138700,23.640800,-7.436700,1.680700,-2.147100,9.035200,701.750000,-896.500000,3772.500000
1730861917038,-12.522400,20.938700,-7.151000,2.138700,-2.348300,9.825500,982.250000,-997.250000,4185.000000
1730861917058,-20.934600,15.293800,-6.628500,1.838100,-2.343500,9.233300,767.500000,-978.500000,3855.250000
1730861917078,-23.746900,14.477500,-8.240800,1.596200,-1.742300,8.410100,666.500000,-727.500000,3511.500000
1730861917098,-20.534600,16.285700,-10.530600,1.330400,-1.537600,8.151400,629.250000,-625.000000,3514.750000
1730861917118,-15.722400,16.102000,-12.379500,2.378200,-1.830300,9.035200,993.000000,-764.250000,3772.500000
1730861917138,-15.824400,13.885700,-13.012200,2.421300,-1.692600,9.569800,1011.000000,-706.750000,3995.750000
1730861917158,-17.228500,13.722400,-13.187700,2.194400,-1.512400,9.851300,934.750000,-693.250000,4145.500000
1730861917178,-19.000000,13.371400,-12.730600,2.396200,-1.452500,10.153600,1000.500000,-606.500000,4239.500000
1730861917197,-23.114200,12.089700,-12.408100,2.355500,-1.770500,9.911700,983.500000,-739.250000,4138.500000
1730861917218,-29.987700,11.824400,-13.391800,2.284800,-1.057900,9.087900,954.000000,-441.750000,3794.500000
1730861917238,-28.775500,11.677500,-13.653000,2.510500,0.819000,8.799900,1048.250000,-342.000000,3674.250000
1730861917257,-25.759100,11.759100,-13.534600,2.632100,0.753200,9.060900,1099.000000,-314.500000,3783.250000
1730861917277,-26.530600,11.975500,-15.073400,2.800900,0.484900,9.313600,1169.500000,-202.500000,3888.750000
1730861917296,-27.885700,10.922400,-16.371400,2.948200,0.386100,9.330300,1231.000000,-161.250000,3895.750000
1730861917317,-27.600000,8.722400,-17.281600,3.045200,0.168800,9.153100,1271.500000,-6.500000,3788.500000
1730861917337,-25.493800,3.889700,-17.012200,2.686000,0.153800,9.297400,1121.500000,64.250000,3882.000000
1730861917357,-25.918300,0.346900,-17.167300,2.925500,0.007100,9.414200,1221.500000,3.000000,3930.750000
1730861917377,-27.281600,-2.391800,-16.497900,3.416400,0.034700,9.437500,1488.250000,25.250000,3939.500000
1730861917397,-27.048900,-3.755100,-12.151000,3.473300,0.269400,9.225600,1450.250000,112.500000,3852.000000
1730861917417,-26.093800,-5.518300,-10.044800,3.301500,0.191000,9.021400,1378.500000,79.750000,3766.750000
1730861917437,-27.146900,-8.065300,-10.910200,3.227800,0.301700,9.238700,1333.000000,169.250000,3846.500000
1730861917456,-29.779500,-10.555100,-12.102000,3.176300,0.480200,9.222600,1326.250000,200.500000,3850.750000
1730861917477,-30.028500,-13.771400,-13.444800,3.230800,0.608300,9.378200,1349.000000,254.000000,3915.750000
1730861917497,-31.951000,-20.102000,-14.836700,3.403300,0.707100,9.441100,1459.250000,350.750000,3934.750000
1730861917517,-32.110200,-22.971400,-12.763200,2.972800,1.310600,9.375900,1241.250000,547.250000,3914.750000
1730861917537,-29.351000,-22.575500,-9.795900,2.489000,1.653100,8.950100,1039.250000,690.250000,3737.000000
1730861917556,-24.342800,-17.755100,-8.016300,2.323700,1.977600,8.616600,970.250000,825.750000,3597.750000
1730861917575,-21.779500,-14.930600,-7.665300,2.420700,2.055500,8.819600,1010.750000,858.250000,3682.500000
1730861917596,-19.338700,-13.257100,-7.126500,2.465600,1.816000,9.045300,1029.500000,758.250000,3776.750000
1730861917615,-18.220400,-11.967300,-6.024400,2.362000,1.871700,9.096200,986.250000,781.500000,3798.000000
1730861917636,-18.208100,-10.832600,-5.804000,1.839900,1.981800,9.546500,768.250000,827.500000,3986.000000
1730861917656,-18.922400,-8.563200,-6.469300,1.872300,2.215900,9.393800,781.750000,861.250000,3830.750000
1730861917676,-19.285700,-8.506100,-6.857100,2.411700,2.200400,8.671100,1007.000000,918.750000,3620.500000
1730861917696,-17.881600,-10.955100,-6.253000,2.337500,2.269200,8.533400,976.000000,947.500000,3563.000000
1730861917716,-16.130600,-13.636700,-5.567300,2.017200,2.288400,9.219600,794.250000,949.000000,4014.500000
1730861917736,-18.497900,-14.955100,-5.342800,1.756100,2.339900,9.864400,733.250000,977.000000,4118.750000
1730861917756,-20.983600,-14.608100,-5.220400,1.776500,2.526700,9.496800,741.750000,1055.000000,3965.250000
1730861917776,-22.118300,-14.228500,-4.391800,1.867500,2.720100,9.036400,782.500000,1182.500000,3669.000000
1730861917796,-20.146900,-13.318300,-2.922400,1.560300,3.010500,8.493900,651.500000,1257.000000,3546.500000
1730861917816,-18.159100,-11.477500,-2.338700,1.138800,3.229600,8.495100,475.500000,1348.500000,3547.000000
1730861917836,-14.955100,-8.032600,-2.951000,1.035200,3.303300,8.799900,435.500000,1394.000000,3706.750000
1730861917855,-13.702000,-6.326500,-3.142800,1.283700,3.168600,8.915400,536.000000,1323.000000,3722.500000
1730861917875,-14.473400,-7.375500,-3.191800,1.759100,3.076400,9.085500,734.500000,1284.500000,3793.500000
1730861917894,-16.616300,-10.383600,-1.497900,1.455500,3.469100,8.914200,603.250000,1448.500000,3722.000000
1730861917915,-16.285700,-11.000000,0.624400,1.246600,3.543400,8.660900,520.500000,1479.500000,3616.250000
1730861917935,-14.600000,-11.044800,0.024400,0.969300,3.709200,8.871700,404.750000,1548.750000,3704.250000
1730861917955,-14.608100,-11.383600,0.330600,1.117200,3.645800,9.062100,466.500000,1522.250000,3783.750000
1730861917975,-15.432600,-12.224400,0.844800,1.150200,3.642800,8.858500,480.250000,1521.000000,3698.750000
1730861917995,-16.004000,-13.510200,1.473400,1.086700,3.670300,8.922000,453.750000,1532.500000,3712.000000
1730861918015,-17.032600,-15.028500,2.465300,0.822000,3.826600,8.748400,343.250000,1597.750000,3652.750000
1730861918035,-17.289700,-15.036700,3.097900,0.707100,3.959500,8.444800,295.250000,1653.250000,3526.000000
1730861918054,-16.359100,-14.297900,3.538700,0.453800,4.182900,8.422000,112.000000,1763.000000,3576.500000
1730861918075,-14.942800,-11.559100,3.297900,0.213100,4.302000,8.859700,89.000000,1796.250000,3699.250000
1730861918095,-15.436700,-10.395900,2.926500,0.503500,4.239700,8.759700,210.250000,1770.250000,3657.500000
1730861918115,-16.040800,-10.273400,3.236700,0.444200,4.346300,8.722600,132.000000,1839.750000,3621.000000
1730861918134,-16.710200,-9.604000,3.085700,0.207700,4.547500,8.469900,86.750000,1898.750000,3536.500000
1730861918154,-15.448900,-9.191800,2.726500,0.124500,4.631900,8.379500,52.000000,1934.000000,3498.750000
1730861918174,-15.130600,-9.424400,2.236700,0.076000,4.733700,8.356800,16.500000,2002.750000,3460.750000
1730861918193,-14.697900,-8.991800,1.873400,0.127500,4.830100,8.294500,-53.250000,2016.750000,3463.250000
1730861918214,-15.134600,-9.134600,1.159100,0.059200,4.734900,8.406500,24.750000,1977.000000,3510.000000
1730861918233,-17.987700,-11.285700,1.632600,0.035300,4.799600,8.504100,4.250000,2004.000000,3550.750000
1730861918254,-20.314200,-12.175500,2.559100,0.419100,4.957600,8.666900,-175.000000,2070.000000,3618.750000
1730861918274,-22.240800,-11.432600,2.355100,0.565200,5.037300,8.252600,-236.000000,2103.250000,3445.750000
1730861918294,-19.420400,-7.791800,2.057100,0.690300,5.549800,7.237100,-288.250000,2317.250000,3021.750000
1730861918314,-15.363200,-4.726500,1.685700,0.804700,5.578000,7.507700,-336.000000,2329.000000,3134.750000
1730861918334,-13.575500,-1.881600,1.077500,0.771700,5.529500,8.135200,-322.250000,2308.750000,3438.250000
1730861918354,-14.816300,0.069300,0.604000,0.434000,5.486300,8.084900,-181.250000,2290.750000,3375.750000
1730861918374,-15.620400,0.983600,0.812200,0.180200,5.462400,8.014900,-75.250000,2280.750000,3346.500000
1730861918394,-16.828500,-2.775500,1.130600,0.419100,5.476800,8.244200,-236.500000,2323.250000,3396.750000
1730861918414,-18.693800,-3.836700,1.065300,0.628600,5.830000,7.598100,-262.500000,2434.250000,3172.500000
1730861918434,-17.738700,-3.840800,1.146900,0.606500,5.909700,7.315500,-253.250000,2467.500000,3054.500000
1730861918454,-16.861200,-3.718300,1.387700,0.576000,5.982100,7.268800,-234.750000,2513.500000,3004.500000
1730861918474,-15.587700,-2.820400,1.253000,0.761600,6.177900,7.112600,-318.000000,2579.500000,2969.750000
1730861918494,-13.922400,-1.399900,1.057100,0.690900,6.206600,7.109600,-288.500000,2591.500000,2968.500000
1730861918513,-12.759100,-2.146900,1.702000,0.564600,6.033000,7.303600,-227.750000,2501.750000,3097.250000
1730861918532,-13.628500,-4.436700,2.069300,0.553200,5.936000,7.628100,-231.000000,2478.500000,3185.000000
1730861918553,-15.236700,-7.122400,2.048900,0.840600,5.928200,7.944200,-351.000000,2475.250000,3317.000000
1730861918573,-20.963200,-13.714200,1.465300,0.561000,5.798300,8.055600,-196.500000,2421.000000,3363.500000
1730861918593,-24.840800,-16.971400,1.473400,0.908300,6.370100,7.123300,-379.250000,2659.750000,2974.250000
1730861918613,-24.428500,-17.334600,1.404000,-1.263900,6.630600,6.622200,-527.750000,2768.500000,2765.000000
1730861918633,-21.277500,-13.469300,0.967300,-1.412400,6.815000,6.461100,-589.750000,2845.500000,2697.750000
1730861918653,-20.383600,-10.857100,0.902000,-1.345400,6.847900,6.120400,-561.750000,2859.250000,2555.500000
1730861918673,-18.873400,-8.881600,1.159100,-1.553100,6.924600,6.161100,-648.500000,2891.250000,2572.500000
1730861918693,-16.889700,-5.820400,0.616300,-1.322600,6.916200,6.152200,-552.250000,2887.750000,2568.750000
1730861918713,-16.204000,-5.567300,0.306100,-1.239400,6.933500,6.178500,-517.500000,2895.000000,2579.750000
1730861918733,-15.706100,-5.779500,0.220400,-1.406400,7.129300,5.980900,-610.000000,3026.500000,2426.750000
1730861918753,-12.028500,-4.685700,0.485700,-1.537600,7.349700,5.572000,-642.000000,3068.750000,2326.500000
1730861918773,-8.702000,-2.534600,0.759100,-1.691400,7.400000,5.676700,-706.250000,3089.750000,2370.250000
1730861918793,-6.163200,0.183600,0.648900,-1.728600,7.300600,6.092900,-672.000000,3003.500000,2643.500000
1730861918812,-6.783600,0.122400,0.000000,-1.041200,6.760500,6.935300,-434.750000,2822.750000,2895.750000
1730861918833,-11.187700,-4.314200,0.057100,-1.098100,6.783200,6.998800,-458.500000,2832.250000,2922.250000
1730861918853,-16.906100,-8.836700,0.648900,-1.456100,7.112600,6.688600,-661.250000,3023.750000,2738.250000
1730861918872,-17.012200,-8.844800,0.877500,-1.797400,7.554400,5.750400,-750.500000,3154.250000,2401.000000
1730861918892,-13.493800,-7.044800,0.902000,-1.849500,7.852000,5.034300,-772.250000,3278.500000,2102.000000
1730861918912,-5.453000,-2.134600,-1.220400,-2.087800,7.905900,5.167200,-858.000000,3301.000000,2157.500000
1730861918932,-1.767300,0.861200,-1.722400,-1.790800,7.498200,5.721100,-747.750000,3130.750000,2388.750000
1730861918952,-3.061200,0.938700,-2.134600,-1.361500,7.019800,6.732300,-568.500000,2931.000000,2811.000000
1730861918972,-10.889700,-4.048900,-2.240800,-1.169900,7.107200,6.458100,-488.500000,2967.500000,2696.500000
1730861918992,-13.718300,-7.232600,-2.216300,-1.440600,7.387400,5.967700,-601.500000,3084.500000,2491.750000
1730861919012,-14.220400,-8.114200,-2.061200,-1.906400,7.706500,5.740200,-796.000000,3217.750000,2332.750000
1730861919032,-12.073400,-5.816300,-2.485700,-1.968100,7.983100,5.061800,-821.750000,3333.250000,2113.500000
1730861919052,-8.567300,-2.693800,-2.355100,-2.110000,8.010700,5.203700,-881.000000,3344.750000,2172.750000
1730861919071,-5.608100,0.718300,-2.224400,-1.927900,7.973000,5.166600,-769.500000,3321.250000,2111.750000
1730861919092,0.877500,4.069300,-1.816300,-1.741100,7.743000,5.206700,-727.000000,3233.000000,2174.000000
1730861919112,0.412200,4.828500,-1.824400,-1.581300,7.588600,5.558200,-660.250000,3168.500000,2320.750000
1730861919132,0.436700,5.061200,-1.893800,-1.567500,7.617900,5.537800,-649.500000,3168.750000,2288.000000
1730861919152,1.195900,5.387700,-1.632600,-1.569300,7.621500,5.573800,-655.250000,3182.250000,2327.250000
1730861919171,1.918300,5.893800,-1.481600,-1.496800,7.637100,5.448600,-625.000000,3188.750000,2275.000000
1730861919190,5.922400,7.359100,-1.432600,-1.397400,7.767000,5.119900,-531.000000,3237.250000,2110.250000
1730861919211,9.689700,8.253000,0.444800,-1.323800,7.699900,5.351600,-552.750000,3215.000000,2234.500000
1730861919231,12.620400,9.938700,0.795900,-1.617800,7.675400,5.800100,-675.500000,3204.750000,2421.750000
1730861919251,14.636700,11.673400,1.093800,-1.684200,7.313100,6.090500,-686.500000,3053.500000,2543.000000
1730861919271,13.877500,11.404000,0.967300,-1.368700,7.091600,6.392300,-571.500000,2961.000000,2669.000000
1730861919291,11.824400,10.575500,0.583600,-1.259100,6.950900,6.535400,-525.750000,2902.250000,2728.750000
1730861919311,7.820400,7.265300,0.375500,0.891500,6.912600,6.182100,-372.250000,2886.250000,2581.250000
1730861919331,8.044800,5.020400,0.710200,0.908300,7.006000,5.915600,-379.250000,2925.250000,2470.000000
1730861919351,9.081600,3.191800,0.975500,0.952000,6.958100,5.765400,-397.500000,2905.250000,2345.750000
1730861919371,13.416300,2.204000,0.400000,-1.257300,7.061700,5.446200,-525.000000,2948.500000,2274.000000
1730861919391,17.600000,3.714200,0.195900,-1.496800,7.055700,5.934800,-625.000000,2946.000000,2478.000000
1730861919411,20.102000,6.175500,0.469300,-1.611200,6.868300,6.693400,-655.000000,2812.500000,2898.500000
1730861919431,19.404000,9.424400,-1.538700,-1.117800,6.502400,7.073600,-466.750000,2715.000000,2953.500000
1730861919451,17.628500,9.204000,-1.579500,0.605900,6.354500,6.929300,-253.000000,2653.250000,2893.250000
1730861919470,16.955100,7.848900,0.163200,0.396900,6.470100,6.496400,-236.750000,2776.000000,2654.750000
1730861919490,21.359100,7.273400,0.355100,-1.028000,6.510800,6.689800,-429.250000,2718.500000,2793.250000
1730861919510,23.473400,6.991800,0.232600,0.844800,6.254500,7.247300,-352.750000,2611.500000,3026.000000
1730861919530,23.502000,7.020400,0.428500,-1.037600,6.064100,7.990900,-444.000000,2460.250000,3414.000000
1730861919550,20.240800,7.693800,0.171400,0.817300,5.829400,8.299900,-341.250000,2434.000000,3465.500000
1730861919570,16.669300,6.889700,0.436700,0.379600,5.512700,7.760400,-158.500000,2301.750000,3240.250000
1730861919590,16.367300,6.265300,1.799900,0.356800,5.912100,6.864100,-178.500000,2468.500000,2866.000000
1730861919610,18.791800,6.824400,2.293800,0.708900,5.631200,7.219700,-296.000000,2351.250000,3014.500000
1730861919630,21.318300,7.873400,3.632600,0.249600,4.919300,7.301200,104.250000,2054.000000,3048.500000
1730861919650,26.612200,9.191800,7.383600,-1.150800,5.284600,8.352600,-480.500000,2206.500000,3487.500000
1730861919670,25.522400,10.718300,4.751000,0.937600,4.745700,8.735800,-391.500000,1981.500000,3647.500000
1730861919690,22.693800,10.930600,4.669300,0.325700,4.625300,8.611200,-136.000000,1931.250000,3580.500000
1730861919710,18.857100,9.681600,5.628500,0.107700,4.405000,8.537600,-45.000000,1839.250000,3564.750000
1730861919730,16.685700,9.616300,5.620400,0.083200,4.580400,8.372900,-34.750000,1912.500000,3496.000000
1730861919749,17.600000,9.718300,6.073400,0.514900,4.715100,8.475900,-278.750000,1963.500000,3575.250000
1730861919770,20.228500,10.853000,5.465300,0.632800,4.411600,8.701100,-264.250000,1842.000000,3633.000000
1730861919790,20.000000,10.322400,4.232600,0.354400,4.081700,8.813600,-148.000000,1704.250000,3680.000000
1730861919809,18.518300,7.836700,3.926500,0.141900,3.758900,8.980100,-30.000000,1532.250000,3791.000000
1730861919829,15.024400,6.636700,4.289700,0.169400,3.588900,9.210600,-70.750000,1498.500000,3845.750000
1730861919849,13.065300,6.812200,4.236700,0.384400,3.653600,9.196800,-160.500000,1525.500000,3840.000000
1730861919869,11.326500,7.648900,2.077500,0.399300,3.691300,8.999800,-90.500000,1535.500000,3724.750000
1730861919889,10.865300,7.048900,1.351000,0.108300,3.501500,8.759700,-45.250000,1462.000000,3657.500000
1730861919909,12.146900,8.306100,1.510200,0.143700,3.606300,8.421400,60.000000,1505.750000,3516.250000
1730861919928,16.383600,8.808100,3.567300,0.353800,3.281700,8.323800,184.750000,1370.250000,3475.500000
1730861919949,17.906100,8.285700,4.967300,0.364600,3.199700,8.572300,152.250000,1336.000000,3579.250000
1730861919969,19.146900,8.208100,5.848900,0.143100,3.084700,8.883100,59.750000,1288.000000,3709.000000
1730861919989,22.187700,7.677500,7.779500,0.274800,2.938000,9.370500,114.750000,1226.750000,3912.500000
1730861920009,22.804000,8.236700,8.351000,0.544800,2.337500,9.862000,227.500000,976.000000,4117.750000
1730861920028,21.257100,9.126500,10.428500,0.971700,2.185400,9.933300,405.750000,912.500000,4109.000000
1730861920048,14.861200,6.571400,9.640800,0.131700,2.588400,9.801600,-55.000000,1080.750000,4092.500000
1730861920068,10.648900,5.081600,6.775500,0.324500,2.515900,9.298000,135.500000,1050.500000,3882.250000
1730861920088,9.918300,4.167300,6.085700,0.848400,2.360200,9.034600,444.750000,830.250000,3827.500000
1730861920107,9.836700,3.624400,9.534600,1.181900,1.853700,9.524900,493.500000,774.000000,3977.000000
1730861920128,10.114200,4.681600,12.232600,0.614300,2.014200,9.505200,256.500000,841.000000,3968.750000
1730861920148,11.171400,3.795900,12.481600,0.040700,2.449500,9.254300,-131.250000,1028.500000,3853.250000
1730861920168,10.102000,2.755100,9.146900,0.201100,2.315900,9.448300,-84.000000,967.000000,3945.000000
1730861920187,8.555100,2.893800,6.155100,0.422100,1.798600,9.503400,176.250000,751.000000,3968.000000
1730861920208,5.599900,2.877500,6.375500,0.941200,1.396200,9.463300,409.750000,558.000000,3920.000000
1730861920228,3.089700,2.138700,6.657100,0.714900,1.453700,9.301000,298.500000,607.000000,3883.500000
1730861920247,1.897900,1.257100,7.306100,0.750800,1.613600,9.426100,313.500000,673.750000,3935.750000
1730861920268,4.297900,4.236700,9.318300,0.379600,2.068000,9.569300,145.250000,863.500000,3995.500000
1730861920287,4.693800,6.065300,7.195900,0.246600,2.211200,9.594400,103.000000,923.250000,4006.000000
