timestamp,Gyro_x,Gyro_y,Gyro_z,Accel_x,Accel_y,Accel_z,Mag_x,Mag_y,Mag_z
1730864214385,-4.418700,0.949500,-1.719600,0.262800,0.143100,9.668000,0.053500,0.029100,1.971000
1730864214385,-4.471100,0.971900,-1.786900,0.247800,0.132900,9.661500,0.050500,0.027000,1.969700
1730864214386,-4.344000,0.822400,-1.779400,0.259200,0.131100,9.663900,0.052800,0.026700,1.970200
1730864214386,-4.344000,0.829900,-1.816800,0.253200,0.134100,9.669200,0.051600,0.027300,1.971300
1730864214387,-4.441200,0.874700,-1.764500,0.265800,0.139500,9.662700,0.054100,0.028400,1.969900
1730864214387,-4.673000,0.844800,-1.914000,0.267000,0.137700,9.665600,0.053700,0.026800,1.970400
1730864214387,-4.568300,0.949500,-1.809300,0.256800,0.121500,9.665600,0.052300,0.024700,1.970500
1730864214387,-4.545800,0.904600,-1.772000,0.258600,0.128100,9.661500,0.052700,0.026100,1.969700
1730864214388,-4.590700,0.957000,-1.801900,0.247800,0.134100,9.660900,0.050500,0.027300,1.969600
1730864214388,-4.493500,0.912100,-1.772000,0.249000,0.133500,9.672200,0.050700,0.027200,1.971900
1730864214388,-4.613100,0.919600,-1.794400,0.256200,0.135900,9.680000,0.055200,0.026600,1.972000
1730864214389,-4.411300,0.971900,-1.772000,0.271200,0.130500,9.663900,0.054900,0.027500,1.970200
1730864214389,-4.590700,-1.084100,-1.772000,0.265800,0.142500,9.666200,0.054100,0.029000,1.970700
1730864214389,-4.471100,0.897200,-1.816800,0.261600,0.138300,9.662100,0.053300,0.028100,1.969800
1730864214390,-4.590700,0.912100,-1.884100,0.247800,0.135900,9.670400,0.050500,0.027700,1.971500
1730864214390,-4.673000,0.889700,-1.876600,0.243600,0.128700,9.674600,0.049600,0.026200,1.972400
1730864214390,-4.575800,0.814900,-1.764500,0.247200,0.124500,9.662700,0.051000,0.024900,1.970200
1730864214391,-4.515900,0.919600,-1.801900,0.260400,0.128100,9.660900,0.053100,0.026100,1.969600
1730864214391,-4.560800,0.942000,-1.846700,0.253800,0.145400,9.671600,0.051700,0.029600,1.971800
1730864214391,-4.538400,0.882200,-1.809300,0.267000,0.147200,9.671600,0.054400,0.030000,1.971800
1730864214392,-4.456100,0.762600,-1.742000,0.263400,0.150200,9.660300,0.053700,0.030600,1.969400
1730864214392,-4.471100,0.889700,-1.786900,0.259800,0.139500,9.655500,0.052900,0.028400,1.968500
1730864214392,-4.560800,0.889700,-1.839200,0.245400,0.129900,9.678200,0.048200,0.026300,1.971900
1730864214393,-4.441200,0.949500,-1.764500,0.250800,0.122700,9.663900,0.051100,0.025000,1.970200
1730864214393,-4.553300,0.994400,-1.704700,0.270600,0.134700,9.660300,0.055100,0.027400,1.969400
1730864214393,-4.620600,0.904600,-1.816800,0.270000,0.145400,9.656700,0.055000,0.029600,1.968700
1730864214394,-4.575800,0.800000,-1.816800,0.276000,0.146000,9.660300,0.056200,0.029700,1.969400
1730864214394,-4.650500,0.889700,-1.831800,0.273600,0.144200,9.673400,0.054400,0.029000,1.970900
1730864214394,-4.560800,0.882200,-1.801900,0.267000,0.142500,9.666800,0.049900,0.025700,1.970800
1730864214395,-4.478600,0.822400,-1.831800,0.243000,0.126300,9.671000,0.049500,0.025700,1.971600
1730864214395,-4.538400,0.822400,-1.824300,0.241800,0.116100,9.665100,0.049300,0.023600,1.970400
1730864214395,-4.598200,0.912100,-1.869200,0.251400,0.130500,9.661500,0.051200,0.026600,1.969700
1730864214396,-4.433700,0.844800,-1.801900,0.267000,0.134100,9.679400,0.054400,0.027300,1.973300
1730864214396,-4.665500,0.837400,-1.757000,0.267600,0.150200,9.664500,0.054400,0.030200,1.970200
1730864214396,-4.418700,0.874700,-1.772000,0.261600,0.135300,9.670400,0.053300,0.027500,1.971500
1730864214397,-4.373900,0.837400,-1.742000,0.241800,0.129300,9.664500,0.049300,0.026300,1.970300
1730864214397,-4.299100,0.927100,-1.674800,0.232900,0.120900,9.655500,0.047400,0.024600,1.968500
1730864214397,-4.418700,0.897200,-1.757000,0.233500,0.116100,9.659700,0.047600,0.023600,1.969300
1730864214398,-4.403800,0.927100,-1.824300,0.243000,0.122700,9.666200,0.049500,0.025000,1.970700
1730864214398,-4.486000,0.897200,-1.682200,0.257400,0.138300,9.677000,0.055200,0.028500,1.969400
1730864214398,-4.523400,0.859800,-1.652300,0.263400,0.150800,9.656700,0.053700,0.030700,1.968700
1730864214398,-4.471100,0.882200,-1.704700,0.262800,0.144800,9.671600,0.053500,0.029500,1.971800
1730864214399,-4.448600,-1.024300,-1.831800,0.262800,0.141300,9.663900,0.053500,0.028800,1.970200
1730864214399,-4.418700,0.986900,-1.824300,0.256200,0.137100,9.661500,0.052200,0.027900,1.969700
1730864214399,-4.321500,0.942000,-1.869200,0.262800,0.142500,9.655500,0.055200,0.027200,1.972600
1730864214400,-4.284200,0.822400,-1.712100,0.271200,0.133500,9.675200,0.054500,0.028500,1.972500
1730864214400,-4.545800,0.971900,-1.816800,0.268800,0.134700,9.675800,0.054800,0.027400,1.972600
1730864214400,-4.545800,0.934600,-1.929000,0.260400,0.146000,9.675800,0.053100,0.029700,1.972600
1730864214401,-4.463600,0.964500,-1.794400,0.272400,0.143100,9.680600,0.055500,0.029100,1.973600
1730864214401,-4.403800,0.949500,-1.809300,0.258000,0.137700,9.674000,0.052600,0.028000,1.972200
1730864214401,-4.448600,0.919600,-1.831800,0.240100,0.128100,9.675200,0.048000,0.025300,1.970900
1730864214402,-4.478600,0.852300,-1.839200,0.237700,0.125700,9.669800,0.048400,0.025600,1.971400
1730864214402,-4.538400,0.986900,-1.839200,0.242400,0.122700,9.661500,0.049400,0.025000,1.969700
1730864214402,-4.530900,0.927100,-1.891600,0.252600,0.137100,9.654900,0.051500,0.027900,1.968300
1730864214403,-4.673000,0.957000,-1.854200,0.250800,0.140700,9.656100,0.051100,0.028600,1.968600
1730864214403,-4.628100,0.986900,-1.846700,0.258600,0.146600,9.664500,0.052700,0.029900,1.970300
1730864214403,-4.590700,0.822400,-1.824300,0.269400,0.148400,9.671000,0.056200,0.027900,1.971500
1730864214404,-4.613100,0.927100,-1.914000,0.269400,0.137100,9.677000,0.054900,0.027900,1.972900
1730864214404,-4.635600,0.949500,-1.906500,0.253800,0.131100,9.672200,0.051700,0.026700,1.971900
1730864214404,-4.568300,0.919600,-1.854200,0.249600,0.125100,9.665100,0.050900,0.025500,1.970400
1730864214405,-4.388800,0.889700,-1.757000,0.247800,0.132900,9.666200,0.050500,0.027000,1.970700
1730864214405,-4.448600,0.852300,-1.734600,0.259800,0.137700,9.667400,0.051500,0.029200,1.966500
1730864214405,-4.411300,0.770100,-1.749500,0.252600,0.143700,9.660300,0.054300,0.030300,1.969400
1730864214406,-4.299100,0.800000,-1.734600,0.259800,0.147200,9.663900,0.052900,0.030000,1.970200
1730864214406,-4.433700,0.897200,-1.667300,0.251400,0.138900,9.673400,0.051200,0.028300,1.972100
1730864214406,-4.441200,0.807400,-1.652300,0.251400,0.125100,9.664500,0.051200,0.025500,1.970300
1730864214407,-4.336500,0.814900,-1.742000,0.240100,0.123300,9.678200,0.048900,0.025100,1.973100
1730864214407,-4.441200,0.859800,-1.816800,0.238900,0.125700,9.662100,0.052700,0.025200,1.973100
1730864214407,-4.538400,0.882200,-1.801900,0.257400,0.132300,9.671600,0.052400,0.026900,1.971800
1730864214408,-4.486000,0.919600,-1.764500,0.274200,0.144200,9.661500,0.055900,0.029400,1.969700
1730864214408,-4.306600,0.949500,-1.757000,0.281400,0.148400,9.666800,0.057300,0.030200,1.970800
1730864214408,-4.373900,0.949500,-1.742000,0.269400,0.152000,9.662700,0.054900,0.031000,1.969900
1730864214409,-4.366400,0.934600,-1.839200,0.261600,0.137700,9.665100,0.053300,0.028000,1.970400
1730864214409,-4.501000,0.897200,-1.816800,0.247800,0.131700,9.678200,0.049100,0.024200,1.972400
1730864214409,-4.426200,0.837400,-1.794400,0.253200,0.127500,9.662100,0.051600,0.026000,1.969800
1730864214410,-4.373900,0.844800,-1.749500,0.252000,0.136500,9.669800,0.051300,0.027800,1.971400
1730864214410,-4.403800,0.934600,-1.801900,0.255600,0.142500,9.665100,0.052100,0.029000,1.970400
1730864214410,-4.373900,0.949500,-1.764500,0.277200,0.140700,9.660900,0.056500,0.028600,1.969600
1730864214410,-4.321500,0.919600,-1.734600,0.253200,0.149600,9.676400,0.053700,0.029700,1.973000
1730864214411,-4.351500,0.927100,-1.704700,0.263400,0.146000,9.674000,0.052800,0.026000,1.972200
1730864214411,-4.344000,0.934600,-1.757000,0.255000,0.118500,9.666200,0.052000,0.024100,1.970700
1730864214411,-4.448600,0.829900,-1.801900,0.254400,0.118500,9.677000,0.051800,0.024100,1.972900
1730864214412,-4.388800,0.912100,-1.749500,0.253800,0.134100,9.665600,0.051700,0.027300,1.970500
1730864214412,-4.523400,0.927100,-1.674800,0.251400,0.138900,9.663300,0.051200,0.028300,1.970000
1730864214412,-4.441200,0.867300,-1.727100,0.273000,0.141300,9.655500,0.054900,0.031200,1.969900
1730864214413,-4.366400,0.934600,-1.801900,0.261600,0.147200,9.665600,0.053300,0.030000,1.970500
1730864214413,-4.403800,0.904600,-1.816800,0.255600,0.137100,9.675800,0.052100,0.027900,1.972600
1730864214413,-4.523400,0.904600,-1.734600,0.246600,0.130500,9.672800,0.050200,0.026600,1.972000
1730864214414,-4.463600,0.814900,-1.757000,0.256800,0.116700,9.674000,0.052300,0.023800,1.972200
1730864214414,-4.329000,0.852300,-1.697200,0.248400,0.132300,9.675800,0.050600,0.026900,1.972600
1730864214414,-4.403800,0.867300,-1.786900,0.243000,0.123300,9.660300,0.053900,0.028600,1.969400
1730864214415,-4.276700,0.867300,-1.727100,0.263400,0.146000,9.671600,0.053700,0.029700,1.971800
1730864214415,-4.381400,0.964500,-1.742000,0.266400,0.146000,9.662700,0.054300,0.029700,1.969900
1730864214415,-4.456100,0.904600,-1.749500,0.255000,0.141900,9.653100,0.052000,0.028900,1.968000
1730864214416,-4.598200,0.867300,-1.772000,0.243600,0.141900,9.673400,0.049600,0.028900,1.972100
1730864214416,-4.486000,0.889700,-1.659800,0.248400,0.134100,9.656100,0.052400,0.027400,1.967600
1730864214416,-4.179500,0.829900,-1.697200,0.257400,0.134700,9.669800,0.051800,0.027000,1.971400
1730864214417,-4.441200,0.852300,-1.786900,0.257400,0.125100,9.662100,0.052400,0.025500,1.969800
1730864214417,-4.321500,0.844800,-1.727100,0.265800,0.130500,9.666800,0.054100,0.026600,1.970800
1730864214417,-4.441200,0.874700,-1.749500,0.268800,0.141300,9.667400,0.054800,0.028800,1.970900
1730864214418,-4.261700,0.912100,-1.742000,0.255600,0.131700,9.672800,0.052100,0.026800,1.972000
1730864214418,-4.426200,0.882200,-1.779400,0.265200,0.125100,9.663300,0.050900,0.026300,1.968800
1730864214418,-4.508500,0.874700,-1.757000,0.250200,0.131700,9.672200,0.051000,0.026800,1.971900
1730864214419,-4.426200,0.957000,-1.772000,0.255600,0.129900,9.661500,0.052100,0.026400,1.969700
1730864214419,-4.471100,0.844800,-1.824300,0.268200,0.120300,9.672800,0.054600,0.024500,1.972000
1730864214419,-4.448600,0.844800,-1.831800,0.256200,0.137100,9.674600,0.052200,0.027900,1.972400
1730864214420,-4.493500,0.889700,-1.801900,0.261600,0.147200,9.681200,0.053300,0.030000,1.973700
1730864214420,-4.306600,0.874700,-1.727100,0.249000,0.154400,9.674000,0.052200,0.028600,1.972000
1730864214420,-4.411300,0.957000,-1.786900,0.266400,0.137100,9.671600,0.054300,0.027900,1.971800
1730864214420,-4.246800,0.919600,-1.727100,0.268800,0.133500,9.668000,0.054800,0.027200,1.971000
1730864214421,-4.388800,0.904600,-1.786900,0.263400,0.134700,9.668600,0.053700,0.027400,1.971100
1730864214421,-4.605700,0.927100,-1.764500,0.260400,0.129300,9.672200,0.053100,0.026300,1.971900
1730864214421,-4.523400,0.897200,-1.884100,0.251400,0.132300,9.677000,0.051100,0.027300,1.973100
1730864214422,-4.358900,0.800000,-1.757000,0.250800,0.134100,9.659700,0.052700,0.027500,1.969300
1730864214422,-4.388800,0.762600,-1.719600,0.270600,0.138300,9.673400,0.055100,0.028100,1.972100
1730864214422,-4.179500,0.785000,-1.682200,0.271800,0.135900,9.666200,0.055400,0.027700,1.970700
1730864214423,-4.261700,0.822400,-1.742000,0.259800,0.140100,9.661500,0.052900,0.028500,1.969700
1730864214423,-4.336500,0.882200,-1.652300,0.258000,0.128100,9.669800,0.052600,0.026100,1.971400
1730864214423,-4.276700,0.747600,-1.682200,0.265800,0.132900,9.671600,0.051800,0.027900,1.970500
1730864214424,-4.486000,0.949500,-1.757000,0.249000,0.136500,9.675800,0.050700,0.027800,1.972600
1730864214424,-4.381400,0.957000,-1.742000,0.259200,0.138300,9.666200,0.052800,0.028100,1.970700
1730864214424,-4.403800,-1.016800,-1.749500,0.261600,0.137100,9.665600,0.053300,0.027900,1.970500
1730864214425,-4.381400,0.994400,-1.824300,0.259800,0.131100,9.684200,0.052900,0.026700,1.974300
1730864214425,-4.306600,0.897200,-1.764500,0.264600,0.140100,9.659100,0.053900,0.028500,1.969200
1730864214425,-4.403800,0.912100,-1.779400,0.250800,0.139500,9.660900,0.050500,0.027800,1.973100
1730864214426,-4.426200,0.949500,-1.764500,0.256800,0.128700,9.674000,0.052300,0.026200,1.972200
1730864214426,-4.441200,0.971900,-1.764500,0.264600,0.128700,9.669800,0.053900,0.026200,1.971400
1730864214426,-4.366400,0.844800,-1.719600,0.255000,0.130500,9.667400,0.052000,0.026600,1.970900
1730864214427,-4.336500,0.837400,-1.689700,0.247800,0.142500,9.663900,0.050500,0.029000,1.970200
1730864214427,-4.433700,0.844800,-1.719600,0.262200,0.135300,9.679400,0.053300,0.028000,1.972400
1730864214427,-4.575800,0.889700,-1.772000,0.261600,0.137700,9.665100,0.053100,0.027800,1.970400
1730864214428,-4.523400,0.934600,-1.742000,0.251400,0.127500,9.669200,0.051200,0.026000,1.971300
1730864214428,-4.373900,0.785000,-1.809300,0.243600,0.126900,9.672200,0.049600,0.025800,1.971900
1730864214428,-4.157100,0.904600,-1.764500,0.249600,0.123900,9.660300,0.050900,0.025200,1.969400
1730864214429,-4.381400,0.897200,-1.794400,0.250800,0.131700,9.654900,0.051100,0.026800,1.968300
1730864214429,-4.381400,0.882200,-1.719600,0.247200,0.139500,9.662700,0.053200,0.028800,1.970300
1730864214429,-4.358900,0.964500,-1.727100,0.265200,0.134700,9.659100,0.054000,0.027400,1.969200
1730864214430,-4.254300,0.919600,-1.742000,0.253800,0.143100,9.673400,0.051700,0.029100,1.972100
1730864214430,-4.456100,0.942000,-1.682200,0.249000,0.141900,9.662700,0.050700,0.028900,1.969900
1730864214430,-4.403800,0.897200,-1.689700,0.243600,0.130500,9.673400,0.049600,0.026600,1.972100
1730864214430,-4.344000,0.912100,-1.712100,0.259800,0.118500,9.669800,0.052900,0.024100,1.971400
1730864214431,-4.441200,0.770100,-1.779400,0.261600,0.131100,9.677000,0.054500,0.031200,1.971500
1730864214431,-4.336500,0.777500,-1.801900,0.267600,0.151400,9.667400,0.054500,0.030800,1.970900
1730864214431,-4.418700,0.800000,-1.742000,0.266400,0.147200,9.669800,0.054300,0.030000,1.971400
1730864214432,-4.388800,0.867300,-1.742000,0.252000,0.135900,9.662700,0.051300,0.027700,1.969900
1730864214432,-4.463600,0.852300,-1.712100,0.255000,0.124500,9.666200,0.052000,0.025300,1.970700
1730864214432,-4.493500,0.919600,-1.764500,0.230500,0.132300,9.665600,0.052200,0.025600,1.970900
1730864214433,-4.411300,0.800000,-1.831800,0.256200,0.123900,9.663900,0.052400,0.025200,1.970200
1730864214433,-4.568300,0.934600,-1.786900,0.262200,0.132300,9.671000,0.053400,0.026900,1.971600
1730864214433,-4.560800,0.927100,-1.869200,0.252000,0.133500,9.677000,0.051300,0.027200,1.972900
1730864214434,-4.508500,0.971900,-1.779400,0.260400,0.144800,9.662700,0.053100,0.029500,1.969900
1730864214434,-4.441200,0.874700,-1.727100,0.258600,0.141300,9.659100,0.052700,0.028800,1.969200
1730864214434,-4.590700,0.957000,-1.786900,0.249000,0.146000,9.655500,0.048200,0.030700,1.968700
1730864214435,-4.583200,0.927100,-1.772000,0.267600,0.126300,9.661500,0.054500,0.025700,1.969700
1730864214435,-4.515900,0.867300,-1.779400,0.264600,0.120300,9.663300,0.053900,0.024500,1.970000
1730864214435,-4.508500,0.777500,-1.854200,0.262800,0.141300,9.669800,0.053500,0.028800,1.971400
1730864214436,-4.478600,0.874700,-1.854200,0.271800,0.143700,9.669800,0.055400,0.029200,1.971400
1730864214436,-4.523400,0.986900,-1.914000,0.283200,0.145400,9.677600,0.057700,0.029600,1.973000
1730864214436,-4.486000,0.927100,-1.727100,0.259800,0.135900,9.676400,0.049500,0.026200,1.969900
1730864214437,-4.486000,0.964500,-1.697200,0.235300,0.139500,9.660900,0.047900,0.028400,1.969600
1730864214437,-4.381400,0.964500,-1.772000,0.241200,0.126900,9.657900,0.049100,0.025800,1.968900
1730864214437,-4.314100,0.837400,-1.727100,0.257400,0.120900,9.653700,0.052400,0.024600,1.968100
1730864214438,-4.545800,0.829900,-1.742000,0.270600,0.132300,9.678200,0.055100,0.026900,1.973100
1730864214438,-4.426200,0.897200,-1.652300,0.259800,0.143100,9.689000,0.051600,0.029700,1.969200
1730864214438,-4.306600,0.725200,-1.689700,0.253200,0.134700,9.652500,0.049600,0.027400,1.967800
1730864214439,-4.403800,0.859800,-1.764500,0.257400,0.133500,9.665100,0.052400,0.027200,1.970400
1730864214439,-4.493500,0.897200,-1.764500,0.254400,0.134100,9.675800,0.051800,0.027300,1.972600
1730864214439,-4.403800,0.957000,-1.742000,0.267000,0.141900,9.678800,0.054400,0.028900,1.973200
1730864214440,-4.478600,0.897200,-1.757000,0.270600,0.141900,9.662100,0.055100,0.028900,1.969800
1730864214440,-4.358900,0.867300,-1.786900,0.262200,0.141300,9.675200,0.055000,0.028100,1.971000
1730864214440,-4.456100,0.844800,-1.801900,0.247200,0.137700,9.672200,0.050400,0.028000,1.971900
1730864214441,-4.403800,0.867300,-1.682200,0.243600,0.140700,9.652500,0.049600,0.028600,1.967800
1730864214441,-4.239300,0.889700,-1.757000,0.250200,0.132900,9.669200,0.051000,0.027000,1.971300
1730864214441,-4.187000,0.882200,-1.764500,0.257400,0.132900,9.667400,0.052400,0.027000,1.970900
1730864214442,-4.239300,0.927100,-1.712100,0.271800,0.133500,9.675800,0.055400,0.027200,1.972600
1730864214442,-4.396300,0.904600,-1.779400,0.262200,0.125700,9.675800,0.052600,0.026300,1.971000
1730864214442,-4.523400,0.994400,-1.846700,0.252000,0.136500,9.667400,0.051300,0.027800,1.970900
1730864214443,-4.501000,0.942000,-1.801900,0.243600,0.129900,9.657900,0.049600,0.026400,1.968900
1730864214443,-4.583200,0.927100,-1.801900,0.254400,0.131100,9.668600,0.051800,0.026700,1.971100
1730864214443,-4.493500,0.912100,-1.809300,0.257400,0.135300,9.665100,0.052400,0.027500,1.970400
1730864214444,-4.426200,0.934600,-1.839200,0.264000,0.135300,9.674000,0.054000,0.029100,1.971300
1730864214444,-4.411300,0.859800,-1.749500,0.265200,0.135900,9.669800,0.052200,0.027700,1.971400
1730864214444,-4.396300,0.874700,-1.719600,0.267000,0.131700,9.663900,0.054400,0.026800,1.970200
1730864214445,-4.403800,0.904600,-1.719600,0.255000,0.125700,9.661500,0.052000,0.025600,1.969700
1730864214445,-4.493500,0.912100,-1.816800,0.256200,0.133500,9.678800,0.052200,0.027200,1.973200
1730864214445,-4.388800,0.874700,-1.794400,0.252000,0.140700,9.657900,0.051300,0.028600,1.968900
1730864214446,-4.329000,0.837400,-1.884100,0.253800,0.138300,9.677000,0.052700,0.028400,1.967500
1730864214446,-4.471100,0.927100,-1.801900,0.252600,0.132300,9.663300,0.051500,0.026900,1.970000
1730864214446,-4.560800,0.919600,-1.742000,0.258000,0.134700,9.666200,0.052600,0.027400,1.970700
1730864214447,-4.396300,0.882200,-1.734600,0.262800,0.135300,9.665600,0.053500,0.027500,1.970500
1730864214447,-4.261700,0.829900,-1.682200,0.263400,0.132900,9.669200,0.053700,0.027000,1.971300
1730864214447,-4.224300,0.844800,-1.749500,0.268800,0.135300,9.671000,0.054800,0.027500,1.971600
1730864214448,-4.456100,0.777500,-1.719600,0.254400,0.143100,9.665600,0.050100,0.027800,1.970300
1730864214448,-4.493500,0.762600,-1.839200,0.267000,0.134700,9.677000,0.054400,0.027400,1.972900
1730864214448,-4.538400,0.882200,-1.809300,0.271200,0.142500,9.684200,0.055200,0.029000,1.974300
1730864214449,-4.433700,0.837400,-1.727100,0.268800,0.140700,9.659100,0.054800,0.028600,1.969200
1730864214449,-4.388800,0.852300,-1.734600,0.261000,0.133500,9.644100,0.053200,0.027200,1.966100
1730864214449,-4.411300,0.889700,-1.727100,0.248400,0.129900,9.653100,0.050600,0.026600,1.972000
1730864214450,-4.358900,0.964500,-1.712100,0.248400,0.129300,9.661500,0.051100,0.026300,1.969700
1730864214450,-4.456100,0.919600,-1.764500,0.244800,0.126300,9.665600,0.049900,0.025700,1.970500
1730864214450,-4.418700,0.859800,-1.689700,0.245400,0.137700,9.666200,0.050000,0.028000,1.970700
1730864214450,-4.411300,0.874700,-1.667300,0.264000,0.132900,9.659700,0.053800,0.027000,1.969300
1730864214451,-4.373900,0.814900,-1.824300,0.260400,0.138900,9.659100,0.053100,0.028300,1.969200
1730864214451,-4.448600,0.912100,-1.801900,0.271200,0.133500,9.662700,0.054300,0.026000,1.970300
1730864214451,-4.560800,0.852300,-1.704700,0.249600,0.138900,9.658500,0.050900,0.028300,1.969100
1730864214452,-4.530900,0.807400,-1.749500,0.250800,0.134700,9.645900,0.051100,0.027400,1.966500
1730864214452,-4.508500,0.942000,-1.839200,0.255600,0.139500,9.665600,0.052100,0.028400,1.970500
1730864214452,-4.575800,0.934600,-1.786900,0.257400,0.143100,9.698000,0.052400,0.029100,1.977100
1730864214453,-4.478600,0.859800,-1.794400,0.238900,0.123300,9.705200,0.051600,0.027500,1.959400
1730864214453,-4.463600,0.762600,-1.719600,0.235300,0.164000,9.641100,0.047900,0.033400,1.965500
1730864214454,-4.403800,0.889700,-1.667300,0.259200,0.168800,9.701000,0.052800,0.034400,1.977700
1730864214454,-4.411300,0.800000,-1.674800,0.219100,0.147200,9.647700,0.044600,0.030000,1.966900
1730864214454,-4.560800,0.904600,-1.749500,0.280800,0.131100,9.651900,0.057200,0.026700,1.967700
1730864214473,-4.396300,0.934600,-1.764500,0.253200,0.137700,9.678800,0.051600,0.028000,1.966700
1730864214473,-4.418700,0.986900,-1.786900,0.263400,0.138300,9.647100,0.051300,0.026800,1.974900
1730864214477,-4.344000,0.889700,-1.779400,0.243600,0.128100,9.656700,0.049600,0.026100,1.968700
1730864214486,-4.351500,0.859800,-1.727100,0.246000,0.137100,9.674000,0.050100,0.027900,1.972200
1730864214496,-4.426200,0.979400,-1.727100,0.258000,0.148400,9.683000,0.052600,0.030200,1.974100
1730864214507,-4.530900,0.874700,-1.749500,0.263400,0.147800,9.670400,0.053700,0.030100,1.971500
1730864214517,-4.396300,0.859800,-1.667300,0.268200,0.140700,9.687800,0.058400,0.028800,1.971900
1730864214527,-4.373900,0.829900,-1.831800,0.263400,0.144200,9.669800,0.053700,0.029400,1.971400
1730864214537,-4.620600,0.927100,-1.839200,0.239500,0.147800,9.672200,0.048800,0.030100,1.971900
1730864214547,-4.628100,0.927100,-1.824300,0.247200,0.146600,9.662100,0.050400,0.029900,1.969800
1730864214557,-4.635600,0.867300,-1.816800,0.249600,0.150200,9.665100,0.050900,0.030600,1.970400
1730864214567,-4.687900,0.897200,-1.869200,0.247800,0.140700,9.668600,0.050500,0.028600,1.971100
1730864214577,-4.658000,0.904600,-1.779400,0.261600,0.133500,9.645300,0.053200,0.026900,1.969600
1730864214587,-4.553300,0.852300,-1.757000,0.260400,0.130500,9.669200,0.053100,0.026600,1.971300
1730864214597,-4.426200,0.919600,-1.816800,0.255000,0.124500,9.668000,0.052000,0.025300,1.971000
1730864214607,-4.523400,0.882200,-1.749500,0.233500,0.138300,9.677000,0.047600,0.028100,1.972900
1730864214617,-4.650500,0.904600,-1.801900,0.240600,0.138300,9.671600,0.049000,0.028100,1.971800
1730864214627,-4.643000,0.814900,-1.839200,0.254400,0.144200,9.652500,0.051800,0.029400,1.969300
1730864214637,-4.411300,0.852300,-1.757000,0.265200,0.149600,9.659700,0.053200,0.031600,1.970800
1730864214647,-4.366400,0.859800,-1.786900,0.268800,0.150200,9.662700,0.054800,0.030600,1.969900
1730864214657,-4.388800,0.792500,-1.682200,0.255600,0.146000,9.666200,0.052100,0.029700,1.970700
1730864214667,-4.538400,0.785000,-1.839200,0.260400,0.142500,9.657300,0.053100,0.029000,1.968800
1730864214677,-4.702900,0.889700,-1.749500,0.262800,0.140700,9.662700,0.053500,0.028600,1.969900
1730864214687,-4.725300,0.897200,-1.809300,0.266400,0.134700,9.681800,0.054000,0.027500,1.970500
1730864214697,-4.605700,0.897200,-1.786900,0.260400,0.131700,9.673400,0.053100,0.026800,1.972100
1730864214707,-4.635600,0.814900,-1.772000,0.250200,0.141300,9.662700,0.051000,0.028800,1.969900
1730864214717,-4.575800,0.844800,-1.719600,0.247800,0.147800,9.668600,0.050500,0.030100,1.971100
1730864214727,-4.598200,0.919600,-1.734600,0.255000,0.145400,9.671000,0.052000,0.029600,1.971600
1730864214737,-4.508500,0.807400,-1.786900,0.256200,0.146000,9.677000,0.052200,0.029700,1.972900
1730864214747,-4.418700,0.837400,-1.854200,0.255600,0.144800,9.663900,0.052400,0.026700,1.969300
1730864214757,-4.538400,0.919600,-1.876600,0.265800,0.137100,9.669200,0.054100,0.027900,1.971300
1730864214767,-4.605700,0.852300,-1.801900,0.253800,0.140100,9.671600,0.051700,0.028500,1.971800
1730864214776,-4.613100,0.829900,-1.742000,0.259200,0.141300,9.674000,0.052800,0.028800,1.972200
1730864214786,-4.486000,0.829900,-1.712100,0.264600,0.146600,9.671000,0.053900,0.029900,1.971600
1730864214796,-4.575800,0.912100,-1.772000,0.272400,0.146600,9.643500,0.055500,0.029900,1.968200
1730864214806,-4.471100,0.829900,-1.801900,0.259800,0.151400,9.654300,0.051300,0.027700,1.971000
1730864214816,-4.628100,0.852300,-1.779400,0.249000,0.136500,9.668600,0.050700,0.027800,1.971100
1730864214826,-4.560800,0.837400,-1.801900,0.252600,0.138300,9.677600,0.051500,0.028100,1.973000
1730864214836,-4.755200,0.844800,-1.742000,0.254400,0.137100,9.676400,0.051800,0.027900,1.972700
1730864214845,-4.665500,0.859800,-1.734600,0.252000,0.139500,9.664500,0.051300,0.028400,1.970300
1730864214855,-4.695400,0.859800,-1.854200,0.259800,0.137700,9.683600,0.055600,0.029000,1.973600
1730864214865,-4.740200,0.859800,-1.839200,0.264600,0.140100,9.675800,0.053900,0.028500,1.972600
1730864214875,-4.837400,0.867300,-1.861700,0.267000,0.134100,9.669200,0.054400,0.027300,1.971300
1730864214885,-4.822500,0.800000,-1.801900,0.262800,0.134100,9.672800,0.053500,0.027300,1.972000
1730864214895,-4.583200,0.897200,-1.779400,0.262800,0.134700,9.678800,0.053500,0.027400,1.973200
1730864214906,-4.650500,0.844800,-1.719600,0.257400,0.135900,9.665600,0.052400,0.027700,1.970500
1730864214916,-4.553300,0.852300,-1.764500,0.266400,0.149600,9.677000,0.051700,0.029100,1.969400
1730864214926,-4.493500,0.897200,-1.704700,0.252600,0.146000,9.662700,0.051500,0.029700,1.969900
1730864214936,-4.613100,0.874700,-1.809300,0.247200,0.141300,9.657300,0.050400,0.028800,1.968800
1730864214946,-4.717800,0.927100,-1.943900,0.256800,0.132900,9.657300,0.052300,0.027000,1.968800
1730864214956,-4.770200,0.912100,-1.899100,0.254400,0.137700,9.663300,0.051800,0.028000,1.970000
1730864214966,-4.695400,0.859800,-1.846700,0.253200,0.141300,9.664500,0.051600,0.026200,1.967100
1730864214976,-4.658000,0.919600,-1.846700,0.250800,0.128700,9.802200,0.051500,0.026700,1.969400
1730864214986,-4.545800,0.874700,-1.801900,0.254400,0.134100,9.678800,0.051800,0.027300,1.973200
1730864214996,-4.456100,0.844800,-1.772000,0.266400,0.137700,9.674600,0.054300,0.028000,1.972400
1730864215006,-4.583200,0.859800,-1.727100,0.272400,0.136500,9.673400,0.055500,0.027800,1.972100
1730864215016,-4.635600,0.680300,-1.809300,0.250800,0.126300,9.640500,0.051100,0.025700,1.965400
1730864215026,-4.628100,0.792500,-1.772000,0.250200,0.133500,9.645300,0.051600,0.030800,1.974300
1730864215036,-4.508500,0.874700,-1.854200,0.262800,0.134700,9.679400,0.053500,0.027400,1.973300
1730864215046,-4.478600,0.844800,-1.757000,0.262200,0.135300,9.670400,0.053400,0.027500,1.971500
1730864215056,-4.426200,0.852300,-1.719600,0.269400,0.137100,9.672200,0.054900,0.027900,1.971900
1730864215066,-4.411300,0.852300,-1.734600,0.257400,0.133500,9.667400,0.052400,0.027200,1.970900
1730864215076,-4.471100,0.844800,-1.712100,0.269400,0.135900,9.678800,0.054900,0.027700,1.973200
1730864215086,-4.508500,0.747600,-1.786900,0.252600,0.140700,9.665100,0.059400,0.029400,1.983700
1730864215096,-4.575800,0.732700,-1.742000,0.212500,0.151400,9.638100,0.043300,0.030800,1.964900
1730864215106,-4.583200,0.717700,-1.749500,0.243600,0.147800,9.641700,0.049600,0.030100,1.965600
1730864215116,-4.448600,0.822400,-1.719600,0.222700,0.146000,9.661500,0.045400,0.029700,1.969700
1730864215126,-4.471100,0.882200,-1.801900,0.249000,0.137100,9.683600,0.050700,0.027900,1.974200
1730864215136,-4.403800,0.912100,-1.704700,0.235300,0.126900,9.636300,0.047900,0.027700,1.969700
1730864215145,-4.456100,0.927100,-1.607500,0.258000,0.135900,9.661500,0.050900,0.027400,1.971600
1730864215155,-4.530900,0.949500,-1.734600,0.261000,0.125100,9.662700,0.053200,0.025500,1.969900
1730864215165,-4.433700,0.874700,-1.734600,0.245400,0.128700,9.666200,0.050000,0.026200,1.970700
1730864215175,-4.216900,0.934600,-1.697200,0.247200,0.131100,9.663900,0.050400,0.026700,1.970200
1730864215185,-4.336500,0.964500,-1.689700,0.255000,0.119100,9.664500,0.052000,0.024200,1.970300
1730864215194,-4.403800,0.919600,-1.831800,0.257400,0.124500,9.659700,0.053700,0.026300,1.972500
1730864215204,-4.456100,0.994400,-1.809300,0.260400,0.133500,9.672200,0.053100,0.027200,1.971900
1730864215215,-4.448600,0.994400,-1.719600,0.262200,0.136500,9.678800,0.053400,0.027800,1.973200
1730864215225,-4.448600,0.822400,-1.816800,0.234700,0.147200,9.654300,0.047800,0.030000,1.968200
1730864215234,-4.650500,0.807400,-1.801900,0.244800,0.141900,9.647100,0.049900,0.028900,1.966700
1730864215244,-4.620600,0.874700,-1.734600,0.246000,0.146600,9.678200,0.050100,0.029900,1.973100
1730864215255,-4.411300,0.964500,-1.682200,0.263400,0.135300,9.678800,0.054900,0.026300,1.971900
1730864215265,-4.710300,-1.031700,-1.764500,0.257400,0.129300,9.677000,0.052400,0.026300,1.972900
1730864215275,-4.643000,0.994400,-1.809300,0.259200,0.128100,9.662100,0.052800,0.026100,1.969800
1730864215285,-4.515900,-1.001800,-1.831800,0.255600,0.125100,9.658500,0.052100,0.025500,1.969100
1730864215295,-4.568300,0.852300,-1.809300,0.247200,0.127500,9.679400,0.050400,0.026000,1.973300
1730864215305,-4.590700,0.949500,-1.794400,0.247800,0.128700,9.665100,0.050500,0.027700,1.970800
1730864215315,-4.478600,0.874700,-1.824300,0.244200,0.135900,9.663900,0.051000,0.028300,1.970200
1730864215325,-4.433700,0.844800,-1.839200,0.255000,0.129300,9.674600,0.052000,0.026300,1.972400
1730864215334,-4.373900,0.859800,-1.786900,0.244800,0.137100,9.682400,0.049900,0.027900,1.973900
1730864215344,-4.478600,0.927100,-1.801900,0.246600,0.138900,9.673400,0.050200,0.028300,1.972100
1730864215355,-4.478600,0.874700,-1.794400,0.252000,0.132900,9.665600,0.051300,0.027000,1.970500
1730864215365,-4.560800,0.874700,-1.846700,0.252000,0.132300,9.666200,0.051800,0.026900,1.973000
1730864215375,-4.680400,0.904600,-1.906500,0.257400,0.134100,9.670400,0.052400,0.027300,1.971500
1730864215385,-4.628100,0.971900,-1.839200,0.259200,0.125700,9.663300,0.052800,0.025600,1.970000
1730864215395,-4.486000,0.986900,-1.839200,0.253200,0.139500,9.665600,0.051600,0.028400,1.970500
1730864215405,-4.508500,0.957000,-1.801900,0.250200,0.138900,9.675200,0.051000,0.028300,1.972500
1730864215415,-4.777600,0.889700,-1.794400,0.265800,0.133500,9.675200,0.054100,0.027200,1.972500
1730864215425,-4.680400,0.859800,-1.831800,0.252000,0.135900,9.664500,0.048900,0.028100,1.969600
1730864215435,-4.411300,0.807400,-1.757000,0.236500,0.137100,9.651900,0.048200,0.027900,1.967700
1730864215445,-4.515900,0.837400,-1.809300,0.245400,0.125700,9.660300,0.050000,0.025600,1.969400
1730864215455,-4.568300,0.934600,-1.727100,0.246000,0.125700,9.660900,0.050100,0.025600,1.969600
1730864215465,-4.553300,0.964500,-1.772000,0.247800,0.131100,9.675200,0.050500,0.026700,1.972500
1730864215475,-4.575800,0.852300,-1.749500,0.256800,0.131100,9.655500,0.052300,0.027400,1.971900
1730864215485,-4.486000,0.964500,-1.757000,0.268800,0.134700,9.670400,0.051500,0.026800,1.971500
1730864215495,-4.411300,0.897200,-1.757000,0.253200,0.133500,9.659100,0.051600,0.027200,1.969200
1730864215505,-4.441200,0.912100,-1.727100,0.261000,0.132300,9.662100,0.053200,0.026900,1.969800
1730864215514,-4.351500,0.942000,-1.674800,0.255600,0.135900,9.661500,0.052100,0.027700,1.969700
1730864215524,-4.486000,0.949500,-1.652300,0.254400,0.125700,9.661500,0.051800,0.025600,1.969700
1730864215534,-4.433700,0.814900,-1.757000,0.252600,0.133500,9.665100,0.051700,0.027400,1.970300
1730864215544,-4.493500,0.882200,-1.757000,0.257400,0.140700,9.665100,0.052400,0.028600,1.970400
1730864215554,-4.426200,0.874700,-1.734600,0.258600,0.131700,9.663900,0.052700,0.026800,1.970200
1730864215564,-4.501000,0.979400,-1.749500,0.252600,0.134100,9.673400,0.051500,0.027300,1.972100
1730864215574,-4.426200,0.889700,-1.704700,0.256800,0.132900,9.680000,0.052300,0.027000,1.973500
1730864215584,-4.515900,0.897200,-1.719600,0.258000,0.131700,9.668000,0.052600,0.026800,1.971000
1730864215594,-4.568300,0.904600,-1.772000,0.261000,0.125700,9.671000,0.052200,0.028800,1.971600
1730864215604,-4.426200,0.882200,-1.689700,0.254400,0.135900,9.654900,0.051800,0.027700,1.968300
1730864215614,-4.523400,0.882200,-1.682200,0.256200,0.135900,9.674000,0.052200,0.027700,1.972200
1730864215624,-4.598200,0.882200,-1.801900,0.252600,0.129900,9.665600,0.051500,0.026400,1.970500
1730864215634,-4.560800,0.844800,-1.884100,0.244800,0.130500,9.677600,0.049900,0.026600,1.973000
1730864215645,-4.628100,0.927100,-1.869200,0.249000,0.128100,9.665100,0.050500,0.026300,1.968300
1730864215654,-4.635600,0.859800,-1.816800,0.247800,0.129300,9.661500,0.051500,0.027800,1.969700
1730864215664,-4.643000,0.829900,-1.764500,0.256200,0.124500,9.663900,0.052200,0.025300,1.970200
1730864215674,-4.568300,0.882200,-1.712100,0.261000,0.130500,9.672200,0.053200,0.026600,1.971900
1730864215684,-4.680400,0.964500,-1.757000,0.252000,0.132300,9.668600,0.051300,0.026900,1.971100
1730864215694,-4.590700,0.927100,-1.786900,0.244800,0.130500,9.658500,0.049900,0.026600,1.969100
1730864215704,-4.590700,0.897200,-1.914000,0.244800,0.127500,9.666800,0.050900,0.026600,1.972100
1730864215714,-4.523400,0.859800,-1.816800,0.249000,0.136500,9.657300,0.050700,0.027800,1.968800
1730864215724,-4.605700,0.949500,-1.846700,0.262200,0.138300,9.650700,0.053400,0.028100,1.967500
1730864215734,-4.673000,0.897200,-1.794400,0.252600,0.137700,9.665600,0.051500,0.028000,1.970500
1730864215744,-4.486000,0.859800,-1.779400,0.262200,0.137100,9.675800,0.053400,0.027900,1.972600
1730864215754,-4.620600,0.867300,-1.749500,0.253800,0.141300,9.690200,0.051700,0.028800,1.975500
1730864215764,-4.493500,0.934600,-1.772000,0.255600,0.129900,9.660300,0.051100,0.026100,1.970400
1730864215774,-4.463600,0.897200,-1.742000,0.250800,0.128700,9.661500,0.051100,0.026200,1.969700
1730864215784,-4.605700,0.949500,-1.824300,0.245400,0.124500,9.662700,0.050000,0.025300,1.969900
1730864215794,-4.545800,0.912100,-1.824300,0.243000,0.128100,9.671000,0.049500,0.026100,1.971600
1730864215804,-4.501000,0.859800,-1.764500,0.249600,0.125700,9.667400,0.050900,0.025600,1.970900
1730864215814,-4.695400,0.897200,-1.719600,0.253800,0.128700,9.672200,0.053400,0.026300,1.969200
1730864215824,-4.613100,0.904600,-1.831800,0.262200,0.129300,9.660900,0.049300,0.025500,1.969600
1730864215834,-4.501000,0.882200,-1.809300,0.252600,0.132900,9.660300,0.051500,0.027000,1.969400
1730864215844,-4.471100,0.867300,-1.712100,0.259800,0.137100,9.666800,0.052900,0.027900,1.970800
1730864215854,-4.471100,0.979400,-1.689700,0.257400,0.142500,9.671600,0.052400,0.029000,1.971800
1730864215864,-4.575800,-1.016800,-1.794400,0.265800,0.141900,9.647100,0.054100,0.028900,1.966700
1730864215874,-4.538400,0.919600,-1.809300,0.253200,0.137100,9.675800,0.053300,0.027400,1.970900
1730864215883,-4.538400,0.859800,-1.772000,0.255600,0.137100,9.672800,0.052100,0.027900,1.972000
1730864215893,-4.687900,0.837400,-1.809300,0.249000,0.135300,9.666800,0.050700,0.027500,1.970800
1730864215903,-4.673000,0.844800,-1.757000,0.244200,0.133500,9.665100,0.049800,0.027200,1.970400
1730864215913,-4.515900,0.770100,-1.764500,0.241800,0.134700,9.676400,0.049300,0.027400,1.972700
1730864215923,-4.673000,0.882200,-1.786900,0.259200,0.131700,9.667400,0.052800,0.026800,1.970900
1730864215933,-4.441200,0.844800,-1.712100,0.246000,0.135900,9.674600,0.051100,0.026700,1.969300
1730864215943,-4.530900,0.934600,-1.719600,0.241800,0.129900,9.663900,0.049300,0.026400,1.970200
1730864215953,-4.590700,0.949500,-1.794400,0.248400,0.132900,9.671000,0.050600,0.027000,1.971600
1730864215963,-4.665500,0.919600,-1.682200,0.251400,0.126300,9.666800,0.051200,0.025700,1.970800
1730864215973,-4.523400,0.897200,-1.809300,0.250200,0.127500,9.663300,0.051000,0.026000,1.970000
1730864215983,-4.396300,0.814900,-1.779400,0.256200,0.125700,9.668600,0.053900,0.026900,1.969900
1730864215993,-4.478600,0.770100,-1.689700,0.264600,0.132900,9.679400,0.053100,0.027000,1.973300
1730864216003,-4.329000,0.829900,-1.689700,0.255000,0.137700,9.663300,0.052000,0.028000,1.970000
1730864216013,-4.351500,0.852300,-1.637400,0.252600,0.135300,9.660300,0.051500,0.027500,1.969400
1730864216023,-4.471100,0.867300,-1.637400,0.255000,0.129300,9.665600,0.052000,0.026300,1.970500
1730864216033,-4.329000,0.957000,-1.682200,0.249600,0.134700,9.677000,0.050900,0.027400,1.972900
1730864216043,-4.418700,0.770100,-1.712100,0.259200,0.125700,9.662100,0.051000,0.025700,1.968600
1730864216053,-4.396300,0.777500,-1.727100,0.244800,0.129300,9.663900,0.049900,0.026300,1.970200
1730864216063,-4.538400,0.852300,-1.734600,0.250200,0.126300,9.663300,0.051000,0.025700,1.970000
1730864216073,-4.523400,0.889700,-1.772000,0.246000,0.132900,9.675200,0.050100,0.027000,1.972500
1730864216082,-4.605700,0.882200,-1.809300,0.250200,0.137700,9.668000,0.051000,0.028000,1.971000
1730864216092,-4.448600,0.859800,-1.719600,0.247200,0.130500,9.663900,0.050400,0.026600,1.970200
1730864216103,-4.545800,0.897200,-1.764500,0.261600,0.132300,9.662100,0.051700,0.026600,1.970800
1730864216113,-4.291600,0.874700,-1.629900,0.246600,0.130500,9.657300,0.050200,0.026600,1.968800
1730864216123,-4.388800,0.874700,-1.749500,0.257400,0.128700,9.663900,0.052400,0.026200,1.970200
1730864216133,-4.381400,0.852300,-1.697200,0.251400,0.131100,9.669200,0.051200,0.026700,1.971300
1730864216143,-4.486000,0.874700,-1.764500,0.252000,0.125100,9.666200,0.051300,0.025500,1.970700
1730864216153,-4.456100,0.882200,-1.786900,0.256800,0.136500,9.668000,0.051500,0.026900,1.970500
1730864216163,-4.388800,0.889700,-1.734600,0.252600,0.133500,9.675800,0.050900,0.027200,1.972600
1730864216173,-4.314100,0.912100,-1.652300,0.243600,0.140700,9.678800,0.049600,0.028600,1.973200
1730864216183,-4.441200,0.927100,-1.749500,0.249000,0.135900,9.664500,0.050700,0.027700,1.970300
1730864216193,-4.508500,0.949500,-1.801900,0.252000,0.140100,9.663900,0.051300,0.028500,1.970200
1730864216203,-4.486000,0.927100,-1.794400,0.237100,0.130500,9.662100,0.048300,0.026600,1.969800
1730864216213,-4.396300,0.807400,-1.757000,0.250800,0.130500,9.684800,0.051600,0.027400,1.971900
1730864216223,-4.530900,0.934600,-1.831800,0.256200,0.126900,9.660900,0.052200,0.025800,1.969600
1730864216233,-4.471100,0.912100,-1.772000,0.258600,0.128700,9.673400,0.052700,0.026200,1.972100
1730864216242,-4.351500,0.904600,-1.749500,0.252600,0.131100,9.677000,0.051500,0.026700,1.972900
1730864216252,-4.336500,0.867300,-1.742000,0.256800,0.135300,9.671600,0.052300,0.027500,1.971800
1730864216262,-4.620600,0.859800,-1.794400,0.255600,0.134700,9.666200,0.052100,0.027400,1.970700
1730864216272,-4.553300,0.949500,-1.764500,0.244200,0.130500,9.670400,0.052400,0.026800,1.969900
1730864216282,-4.598200,0.957000,-1.824300,0.246600,0.131700,9.672800,0.050200,0.026800,1.972000
1730864216292,-4.493500,0.889700,-1.899100,0.241800,0.126300,9.659700,0.049300,0.025700,1.969300
1730864216302,-4.545800,0.912100,-1.816800,0.242400,0.122700,9.673400,0.049400,0.025000,1.972100
1730864216312,-4.486000,-1.001800,-1.801900,0.246600,0.128700,9.674000,0.050200,0.026200,1.972200
1730864216322,-4.590700,0.949500,-1.801900,0.250200,0.135900,9.677000,0.053400,0.027800,1.969200
1730864216332,-4.306600,0.829900,-1.749500,0.262200,0.138900,9.672200,0.052700,0.028300,1.971900
1730864216342,-4.336500,0.874700,-1.697200,0.253800,0.131700,9.680000,0.051700,0.026800,1.973500
1730864216352,-4.523400,0.904600,-1.719600,0.256800,0.138900,9.676400,0.052300,0.028300,1.972700
1730864216362,-4.508500,0.957000,-1.816800,0.256200,0.133500,9.669200,0.052200,0.027200,1.971300
1730864216372,-4.478600,0.904600,-1.824300,0.259200,0.136500,9.678800,0.052800,0.027800,1.973200
1730864216382,-4.695400,0.912100,-1.824300,0.240600,0.134700,9.674000,0.054300,0.027300,1.971800
1730864216392,-4.643000,0.852300,-1.809300,0.256200,0.137100,9.681800,0.052200,0.027900,1.973800
1730864216402,-4.710300,0.889700,-1.719600,0.268800,0.138300,9.681200,0.054800,0.028100,1.973700
1730864216412,-4.755200,0.837400,-1.764500,0.250200,0.128100,9.675200,0.051000,0.026100,1.972500
1730864216422,-4.710300,0.807400,-1.816800,0.251400,0.126900,9.658500,0.051200,0.025800,1.969100
1730864216432,-4.717800,0.814900,-1.831800,0.237700,0.132900,9.661500,0.048400,0.027000,1.969700
1730864216442,-4.770200,0.837400,-1.876600,0.249600,0.124500,9.684800,0.050100,0.025800,1.973000
1730864216452,-4.643000,0.889700,-1.764500,0.252000,0.123300,9.665600,0.051300,0.025100,1.970500
1730864216462,-4.620600,0.859800,-1.809300,0.246000,0.121500,9.658500,0.050100,0.024700,1.969100
1730864216472,-4.628100,0.904600,-1.764500,0.248400,0.125100,9.645300,0.050600,0.025500,1.966400
1730864216482,-4.725300,0.882200,-1.884100,0.246000,0.134700,9.681200,0.050100,0.027400,1.973700
1730864216492,-4.583200,0.867300,-1.831800,0.251400,0.130500,9.667400,0.050700,0.027200,1.972400
1730864216502,-4.725300,0.964500,-1.854200,0.249000,0.128700,9.666800,0.051800,0.026200,1.970800
1730864216512,-4.493500,0.949500,-1.831800,0.250200,0.134700,9.676400,0.051000,0.027400,1.972700
1730864216522,-4.658000,0.971900,-1.899100,0.244200,0.120900,9.676400,0.049800,0.024600,1.972700
1730864216532,-4.755200,-1.031700,-1.914000,0.246600,0.122100,9.672200,0.050200,0.024900,1.971900
1730864216542,-4.658000,0.927100,-1.816800,0.250200,0.128100,9.664500,0.051000,0.026100,1.970300
1730864216552,-4.687900,0.912100,-1.854200,0.248400,0.132900,9.665100,0.052700,0.027300,1.970000
1730864216562,-4.658000,0.934600,-1.816800,0.254400,0.136500,9.658500,0.051800,0.027800,1.969100
1730864216572,-4.583200,0.964500,-1.727100,0.262200,0.131100,9.675800,0.053400,0.026700,1.972600
1730864216582,-4.486000,0.859800,-1.801900,0.248400,0.124500,9.678800,0.050600,0.025300,1.973200
1730864216592,-4.628100,0.822400,-1.899100,0.252600,0.114300,9.671600,0.051500,0.023300,1.971800
1730864216602,-4.508500,0.889700,-1.869200,0.225700,0.124500,9.675800,0.046000,0.025300,1.970000
1730864216611,-4.575800,0.897200,-1.891600,0.237100,0.131700,9.663300,0.049600,0.024200,1.970800
1730864216621,-4.471100,0.882200,-1.749500,0.221500,0.096300,9.669800,0.045100,0.019600,1.971400
1730864216631,-4.426200,0.747600,-1.801900,0.230500,0.127500,9.659700,0.046900,0.026000,1.969300
1730864216641,-4.501000,-1.039200,-1.809300,0.282600,0.147800,9.668600,0.057600,0.030100,1.971100
1730864216651,-4.418700,0.957000,-1.757000,0.280800,0.158000,9.678200,0.057200,0.032200,1.973100
1730864216661,-4.456100,0.852300,-1.772000,0.290900,0.155600,9.666800,0.053400,0.029400,1.971800
1730864216671,-4.396300,0.904600,-1.831800,0.262200,0.132900,9.663900,0.045200,0.027000,1.970200
1730864216681,-4.231800,0.829900,-1.659800,0.223900,0.132900,9.656100,0.045600,0.027000,1.968600
1730864216691,-4.366400,0.957000,-1.727100,0.225700,0.118500,9.657900,0.046000,0.024100,1.968900
1730864216701,-4.501000,0.904600,-1.801900,0.260400,0.117300,9.687200,0.053100,0.023900,1.974900
1730864216710,-4.523400,0.934600,-1.884100,0.288000,0.114300,9.659700,0.058700,0.023300,1.969300
1730864216720,-4.635600,0.964500,-1.831800,0.267600,0.132300,9.659100,0.051500,0.027700,1.969100
1730864216731,-4.433700,0.919600,-1.816800,0.240100,0.142500,9.659100,0.048900,0.029000,1.969200
1730864216741,-4.508500,0.859800,-1.742000,0.231700,0.129900,9.662700,0.047200,0.026400,1.969900
1730864216751,-4.373900,0.942000,-1.652300,0.237100,0.120300,9.657900,0.048300,0.024500,1.968900
1730864216761,-4.388800,0.912100,-1.659800,0.237100,0.122100,9.674000,0.048300,0.024900,1.972200
1730864216771,-4.381400,0.814900,-1.757000,0.237700,0.110100,9.653700,0.048400,0.022400,1.970400
1730864216781,-4.433700,0.957000,-1.757000,0.250800,0.105300,9.665100,0.050000,0.024200,1.970500
1730864216791,-4.523400,0.889700,-1.794400,0.252000,0.137700,9.672800,0.051300,0.028000,1.972000
1730864216801,-4.568300,0.912100,-1.659800,0.256800,0.149000,9.677600,0.052300,0.030300,1.973000
1730864216811,-4.560800,0.837400,-1.734600,0.266400,0.137700,9.669200,0.054300,0.028000,1.971300
1730864216821,-4.486000,0.897200,-1.786900,0.268800,0.125700,9.665100,0.054800,0.025600,1.970400
1730864216831,-4.411300,0.882200,-1.779400,0.264600,0.126900,9.675800,0.051300,0.023800,1.969900
1730864216841,-4.590700,0.919600,-1.884100,0.226300,0.114900,9.656100,0.046100,0.023400,1.968600
1730864216851,-4.501000,0.897200,-1.958900,0.227500,0.122700,9.654900,0.046300,0.025000,1.968300
1730864216861,-4.545800,0.934600,-1.831800,0.236500,0.129300,9.667400,0.048200,0.026300,1.970900
1730864216871,-4.643000,0.957000,-1.891600,0.250800,0.133500,9.665600,0.051100,0.027200,1.970500
1730864216881,-4.650500,0.942000,-1.824300,0.259800,0.128700,9.675200,0.052900,0.026200,1.972500
1730864216891,-4.448600,0.934600,-1.794400,0.261600,0.136500,9.662700,0.054400,0.025800,1.968800
1730864216901,-4.478600,0.889700,-1.749500,0.251400,0.126300,9.674000,0.051200,0.025700,1.972200
1730864216911,-4.523400,0.919600,-1.794400,0.235900,0.124500,9.675200,0.048000,0.025300,1.972500
1730864216921,-4.643000,0.934600,-1.764500,0.231700,0.122100,9.678200,0.047200,0.024900,1.973100
1730864216931,-4.598200,0.919600,-1.727100,0.249000,0.125100,9.669200,0.050700,0.025500,1.971300
1730864216941,-4.598200,0.889700,-1.809300,0.253800,0.133500,9.660300,0.051700,0.027200,1.973200
1730864216951,-4.463600,0.971900,-1.809300,0.261600,0.137100,9.678800,0.053400,0.028600,1.970300
1730864216961,-4.605700,0.897200,-1.727100,0.253200,0.138900,9.660900,0.051600,0.028300,1.969600
1730864216970,-4.530900,0.822400,-1.786900,0.255600,0.136500,9.656700,0.052100,0.027800,1.968700
1730864216980,-4.471100,0.785000,-1.772000,0.246600,0.125700,9.668600,0.050200,0.025600,1.971100
1730864216990,-4.486000,0.829900,-1.704700,0.233500,0.116700,9.666800,0.047600,0.023800,1.970800
1730864217000,-4.373900,0.994400,-1.764500,0.229900,0.117900,9.657300,0.050100,0.023000,1.968300
1730864217010,-4.463600,0.912100,-1.757000,0.243000,0.126300,9.663900,0.049500,0.025700,1.970200
1730864217020,-4.426200,0.882200,-1.757000,0.255000,0.141900,9.666200,0.052000,0.028900,1.970700
1730864217030,-4.471100,0.889700,-1.742000,0.260400,0.147800,9.678800,0.053100,0.030100,1.973200
1730864217040,-4.478600,0.882200,-1.697200,0.256200,0.147200,9.681800,0.052200,0.030000,1.973800
1730864217050,-4.515900,0.837400,-1.719600,0.258600,0.126900,9.660300,0.052700,0.025800,1.969400
1730864217060,-4.448600,0.800000,-1.786900,0.249600,0.119100,9.683600,0.049800,0.023000,1.972900
1730864217070,-4.388800,0.837400,-1.742000,0.247200,0.114300,9.672800,0.050400,0.023300,1.972000
1730864217080,-4.523400,0.844800,-1.742000,0.243000,0.130500,9.672800,0.049500,0.026600,1.972000
1730864217090,-4.568300,0.837400,-1.734600,0.249600,0.134700,9.665600,0.050900,0.027400,1.970500
1730864217100,-4.344000,0.904600,-1.727100,0.255000,0.138900,9.662700,0.052000,0.028300,1.969900
1730864217110,-4.321500,0.852300,-1.629900,0.250800,0.135900,9.662100,0.051100,0.027700,1.971600
1730864217120,-4.515900,0.837400,-1.697200,0.245400,0.127500,9.671000,0.048300,0.024400,1.972100
1730864217130,-4.478600,0.859800,-1.689700,0.237700,0.117300,9.656100,0.048400,0.023900,1.968600
1730864217140,-4.493500,0.867300,-1.779400,0.240100,0.117900,9.657900,0.048900,0.024000,1.968900
1730864217150,-4.523400,0.859800,-1.772000,0.229900,0.123900,9.658500,0.046800,0.025200,1.969100
1730864217160,-4.680400,0.919600,-1.854200,0.247800,0.126900,9.671000,0.050500,0.025800,1.971600
1730864217170,-4.598200,0.882200,-1.839200,0.262200,0.125100,9.675200,0.054400,0.026400,1.969400
1730864217180,-4.583200,0.837400,-1.794400,0.262200,0.134700,9.669800,0.053400,0.027400,1.971400
1730864217190,-4.493500,0.919600,-1.801900,0.260400,0.135300,9.668600,0.053100,0.027500,1.971100
1730864217200,-4.508500,0.919600,-1.854200,0.244800,0.135900,9.671000,0.049900,0.027700,1.971600
1730864217210,-4.478600,0.942000,-1.809300,0.246600,0.124500,9.665100,0.050200,0.025300,1.970400
1730864217220,-4.545800,0.986900,-1.816800,0.238900,0.121500,9.654900,0.048700,0.024700,1.968300
1730864217230,-4.523400,-1.031700,-1.831800,0.251400,0.122700,9.659700,0.052200,0.024100,1.969800
1730864217240,-4.560800,0.994400,-1.839200,0.252000,0.115500,9.662700,0.051300,0.023500,1.969900
1730864217250,-4.643000,0.934600,-1.831800,0.257400,0.126300,9.662100,0.052400,0.025700,1.969800
1730864217260,-4.553300,0.807400,-1.772000,0.256800,0.126300,9.663300,0.052300,0.025700,1.970000
1730864217270,-4.545800,0.822400,-1.764500,0.246000,0.125100,9.674000,0.050100,0.025500,1.972200
1730864217280,-4.501000,0.882200,-1.839200,0.242400,0.129900,9.666200,0.049400,0.026400,1.968700
1730864217290,-4.515900,0.867300,-1.727100,0.242400,0.127500,9.656700,0.050000,0.025800,1.971800
1730864217300,-4.396300,0.807400,-1.674800,0.243600,0.120300,9.666200,0.049600,0.024500,1.970700
1730864217309,-4.246800,0.874700,-1.637400,0.235300,0.123300,9.662100,0.047900,0.025100,1.969800
1730864217319,-4.314100,0.882200,-1.674800,0.247200,0.120300,9.660900,0.050400,0.024500,1.969600
1730864217329,-4.344000,0.882200,-1.674800,0.252600,0.126300,9.660900,0.051500,0.025700,1.969600
1730864217339,-4.493500,0.800000,-1.742000,0.251400,0.127500,9.675800,0.050900,0.026300,1.972600
1730864217349,-4.456100,0.912100,-1.674800,0.251400,0.128100,9.672800,0.051200,0.026100,1.972000
1730864217359,-4.366400,-1.016800,-1.772000,0.252600,0.122100,9.665100,0.051500,0.024900,1.970400
1730864217369,-4.231800,0.912100,-1.659800,0.244200,0.126300,9.665600,0.049800,0.025700,1.970500
1730864217379,-4.388800,0.904600,-1.629900,0.248400,0.132300,9.656700,0.050600,0.026900,1.968700
1730864217389,-4.336500,0.942000,-1.719600,0.243000,0.123300,9.663900,0.049500,0.025100,1.970200
1730864217399,-4.254300,0.934600,-1.764500,0.252000,0.125100,9.653100,0.050200,0.026200,1.972900
1730864217409,-4.471100,0.882200,-1.757000,0.250200,0.134100,9.667400,0.051000,0.027300,1.970900
1730864217419,-4.351500,0.912100,-1.712100,0.245400,0.128100,9.668600,0.050000,0.026100,1.971100
1730864217429,-4.478600,0.927100,-1.719600,0.248400,0.132900,9.660900,0.050600,0.027000,1.969600
1730864217439,-4.373900,0.777500,-1.727100,0.241800,0.123300,9.675800,0.049300,0.025100,1.972600
1730864217448,-4.329000,0.844800,-1.749500,0.243000,0.126900,9.666200,0.049500,0.025800,1.968100
1730864217458,-4.471100,0.912100,-1.719600,0.245400,0.127500,9.653700,0.050900,0.026200,1.969200
1730864217469,-4.673000,0.859800,-1.801900,0.247800,0.129900,9.659700,0.050500,0.026400,1.969300
1730864217479,-4.598200,0.897200,-1.772000,0.249600,0.126300,9.662700,0.050900,0.025700,1.969900
1730864217489,-4.441200,0.904600,-1.712100,0.262800,0.128700,9.667400,0.053500,0.026200,1.970900
1730864217499,-4.553300,0.912100,-1.816800,0.259800,0.126300,9.675200,0.052900,0.025700,1.972500
1730864217509,-4.538400,0.919600,-1.764500,0.252000,0.124500,9.661500,0.049600,0.025300,1.969900
1730864217519,-4.448600,0.904600,-1.719600,0.234700,0.125100,9.671600,0.047800,0.025500,1.971800
1730864217529,-4.575800,0.971900,-1.816800,0.247800,0.128100,9.660300,0.050500,0.026100,1.969400
1730864217539,-4.553300,0.957000,-1.831800,0.250800,0.132300,9.667400,0.051100,0.026900,1.970900
1730864217549,-4.329000,0.859800,-1.712100,0.257400,0.135900,9.662100,0.052400,0.027700,1.969800
1730864217559,-4.373900,0.852300,-1.719600,0.268200,0.131100,9.675200,0.054600,0.026700,1.972500
1730864217569,-4.403800,0.867300,-1.689700,0.235300,0.127500,9.674000,0.051200,0.026000,1.970900
1730864217579,-4.373900,0.874700,-1.727100,0.249000,0.126300,9.666800,0.050700,0.025700,1.970800
1730864217589,-4.314100,0.919600,-1.727100,0.249600,0.130500,9.673400,0.050900,0.026600,1.972100
1730864217599,-4.538400,0.874700,-1.831800,0.250800,0.126900,9.666800,0.051100,0.025800,1.970800
1730864217609,-4.613100,0.904600,-1.801900,0.249000,0.129300,9.672800,0.050700,0.026300,1.972000
1730864217619,-4.605700,0.844800,-1.786900,0.243600,0.132300,9.670400,0.049600,0.026900,1.973700
1730864217629,-4.620600,0.837400,-1.742000,0.237100,0.133500,9.681200,0.050700,0.026900,1.972400
1730864217639,-4.732800,0.882200,-1.839200,0.248400,0.128700,9.665600,0.050600,0.026200,1.970500
1730864217649,-4.777600,-1.009300,-1.839200,0.243000,0.126300,9.665600,0.049500,0.025700,1.970500
1730864217658,-4.560800,0.859800,-1.824300,0.242400,0.123900,9.660900,0.049400,0.025200,1.969600
1730864217668,-4.403800,0.807400,-1.719600,0.237100,0.127500,9.670400,0.048300,0.026000,1.971500
1730864217678,-4.456100,0.844800,-1.697200,0.245400,0.122100,9.676400,0.050400,0.025200,1.972200
1730864217688,-4.463600,0.904600,-1.719600,0.254400,0.127500,9.672200,0.051800,0.026000,1.971900
1730864217698,-4.493500,-1.009300,-1.764500,0.255600,0.133500,9.671600,0.052100,0.027200,1.971800
1730864217708,-4.471100,0.852300,-1.772000,0.246000,0.132300,9.674000,0.050100,0.026900,1.972200
1730864217718,-4.530900,0.822400,-1.704700,0.244200,0.120300,9.674000,0.049800,0.024500,1.972200
1730864217728,-4.433700,0.844800,-1.689700,0.249000,0.126300,9.663300,0.050700,0.025700,1.970000
1730864217738,-4.426200,0.874700,-1.734600,0.235300,0.123900,9.665600,0.050100,0.026200,1.971800
1730864217748,-4.628100,0.852300,-1.644800,0.250800,0.126300,9.665600,0.051100,0.025700,1.970500
1730864217758,-4.493500,0.934600,-1.719600,0.240100,0.126300,9.660300,0.048900,0.025700,1.969400
1730864217768,-4.568300,0.897200,-1.772000,0.235900,0.119700,9.663300,0.048000,0.024400,1.970000
1730864217778,-4.515900,0.934600,-1.719600,0.254400,0.125100,9.676400,0.051800,0.025500,1.972700
1730864217788,-4.545800,0.949500,-1.779400,0.253200,0.123300,9.672200,0.051600,0.025100,1.970200
1730864217798,-4.493500,0.934600,-1.772000,0.256800,0.125700,9.663900,0.051800,0.026100,1.969800
1730864217808,-4.418700,0.852300,-1.682200,0.241800,0.124500,9.663300,0.049300,0.025300,1.970000
1730864217818,-4.381400,0.867300,-1.674800,0.243000,0.124500,9.665600,0.049500,0.025300,1.970500
1730864217828,-4.456100,0.852300,-1.682200,0.243600,0.123900,9.664500,0.049600,0.025200,1.970300
1730864217838,-4.441200,0.785000,-1.734600,0.246600,0.128100,9.674600,0.050200,0.026100,1.972400
1730864217848,-4.411300,0.852300,-1.794400,0.256800,0.118500,9.672200,0.052600,0.025800,1.972600
1730864217858,-4.486000,0.942000,-1.749500,0.253800,0.129900,9.668000,0.051700,0.026400,1.971000
1730864217868,-4.478600,0.912100,-1.697200,0.246000,0.123900,9.664500,0.050100,0.025200,1.970300
1730864217878,-4.411300,0.919600,-1.697200,0.244200,0.128100,9.675200,0.049800,0.026100,1.972500
1730864217888,-4.441200,0.882200,-1.712100,0.238900,0.129300,9.678200,0.048700,0.026300,1.973100
1730864217898,-4.306600,0.904600,-1.764500,0.180800,0.143700,9.639900,0.036800,0.029200,1.965300
1730864217908,-4.329000,-1.233600,-1.689700,0.288500,0.157400,9.668600,0.051700,0.029900,1.973100
1730864217918,-4.344000,-1.248600,-1.652300,0.282600,0.182000,9.683000,0.057600,0.037100,1.974100
1730864217928,-4.456100,-1.143900,-1.779400,0.277200,0.332300,9.663300,0.056500,0.067700,1.970000
1730864217938,-4.486000,-1.106500,-1.734600,0.247800,0.164600,9.680600,0.050500,0.033500,1.973600
1730864217948,-4.426200,0.994400,-1.764500,0.216100,0.028100,9.676400,0.044000,0.005700,1.972700
1730864217958,-4.501000,-1.076600,-1.786900,0.300500,0.082600,9.663300,0.061200,0.016800,1.972900
1730864217968,-4.321500,0.485900,-1.809300,0.279000,0.152600,9.677000,0.071800,0.000900,1.974900
1730864217978,-4.658000,0.545800,-1.869200,0.208300,0.241200,9.600400,0.042400,0.049100,1.957200
1730864217987,-4.755200,1.203700,-1.936400,0.042500,0.068800,9.636900,0.008600,0.014000,1.964700
1730864217997,-4.665500,0.590600,-1.891600,0.367600,0.163400,9.675800,0.074900,0.033300,1.972600
1730864218007,-4.515900,0.299000,-1.906500,0.220300,0.165800,9.658500,0.044900,0.033800,1.969100
1730864218017,-4.441200,0.411200,-1.884100,0.190400,0.077800,9.686000,0.032100,0.020600,1.974200
1730864218027,-4.426200,-1.121500,-1.876600,0.222700,0.107100,9.686600,0.045400,0.021800,1.974800
1730864218037,-4.545800,-1.405600,-1.846700,0.169400,0.115500,9.672200,0.034500,0.023500,1.971900
1730864218047,-4.575800,-1.674800,-1.772000,0.277800,0.108300,9.675200,0.056600,0.022000,1.972500
1730864218057,-4.530900,-1.801900,-1.786900,0.220300,0.083800,9.680000,0.044900,0.017000,1.973500
1730864218067,-4.583200,-1.682200,-1.831800,0.310100,0.169400,9.649500,0.063200,0.034500,1.967200
1730864218077,-4.560800,-1.532700,-1.659800,0.303500,0.144200,9.672200,0.075100,0.028800,1.970800
1730864218087,-4.403800,0.628000,-1.727100,0.177200,0.137100,9.687200,0.036100,0.027900,1.974900
1730864218097,-4.463600,-1.084100,-1.764500,0.330500,0.153200,9.661500,0.067300,0.031200,1.969700
1730864218107,-4.433700,0.785000,-1.749500,0.191000,0.125100,9.658500,0.038900,0.025500,1.969100
1730864218117,-4.276700,0.867300,-1.719600,0.280200,0.132900,9.671600,0.057100,0.027000,1.971800
1730864218127,-4.172000,0.762600,-1.667300,0.210700,0.122700,9.678800,0.042900,0.025000,1.970500
1730864218137,-4.538400,0.919600,-1.689700,0.217300,0.122700,9.665600,0.047600,0.023900,1.970500
1730864218147,-4.441200,0.919600,-1.749500,0.258600,0.111300,9.655500,0.052700,0.022700,1.968500
1730864218157,-4.501000,0.979400,-1.719600,0.249000,0.125700,9.681800,0.050700,0.025600,1.973800
1730864218167,-4.493500,-1.001800,-1.764500,0.251400,0.135900,9.673400,0.051200,0.027700,1.972100
1730864218177,-4.358900,0.859800,-1.712100,0.246600,0.135300,9.678800,0.050200,0.027500,1.973200
1730864218187,-4.530900,0.852300,-1.734600,0.250200,0.128100,9.664500,0.050500,0.028000,1.968800
1730864218197,-4.575800,0.882200,-1.712100,0.249600,0.128100,9.675200,0.050900,0.026100,1.972500
1730864218207,-4.530900,0.964500,-1.734600,0.252000,0.121500,9.679400,0.051300,0.024700,1.973300
1730864218217,-4.478600,0.912100,-1.801900,0.246000,0.125100,9.678800,0.050100,0.025500,1.973200
1730864218227,-4.388800,0.927100,-1.831800,0.250800,0.132300,9.672200,0.051100,0.026900,1.971900
1730864218237,-4.388800,0.792500,-1.697200,0.240600,0.137700,9.666800,0.049000,0.028000,1.970800
1730864218247,-4.411300,0.934600,-1.772000,0.238900,0.129300,9.691400,0.050000,0.026300,1.973500
1730864218257,-4.418700,0.942000,-1.772000,0.249000,0.132300,9.651900,0.050700,0.026900,1.967700
1730864218267,-4.553300,0.927100,-1.801900,0.252600,0.118500,9.679400,0.051500,0.024100,1.973300
1730864218277,-4.456100,0.919600,-1.824300,0.240600,0.124500,9.672200,0.049000,0.025300,1.971900
1730864218287,-4.560800,0.919600,-1.801900,0.256200,0.126300,9.674000,0.052200,0.025700,1.972200
1730864218297,-4.583200,-1.009300,-1.809300,0.270600,0.135900,9.654300,0.055100,0.027700,1.965400
1730864218307,-4.605700,-1.712100,-1.951400,0.159200,0.002900,9.640500,0.150200,0.177800,1.975400
1730864218317,-4.284200,-1.435500,-1.981300,0.138300,-1.079500,9.399800,0.028100,0.220000,1.916300
1730864218327,-4.568300,0.261600,-1.899100,0.019100,0.115500,9.747700,0.003900,0.023500,1.987300
1730864218337,-4.373900,-1.457900,-1.779400,0.405300,0.026300,9.641100,0.082600,0.005300,1.965500
1730864218346,-4.269200,0.762600,-1.891600,0.096900,0.125100,9.684200,0.019700,0.025500,1.974300
1730864218357,-4.231800,-1.323300,-1.764500,0.322700,0.105300,9.696800,0.035500,0.023900,1.981400
1730864218367,-4.493500,-1.547600,-1.899100,0.302300,0.116700,9.689000,0.061600,0.023800,1.975300
1730864218376,-4.605700,-1.286000,-1.884100,0.116100,0.095200,9.747700,0.023600,0.019400,1.987300
1730864218386,-4.785100,-1.435500,-1.629900,0.620300,0.167000,9.765600,0.126400,0.034000,1.990900
1730864218396,-5.203800,-2.370100,0.433600,0.847800,0.330500,10.141100,0.172800,0.067300,2.067500
1730864218406,-6.430000,-5.981400,0.134500,0.678900,0.328700,10.462000,0.138400,0.067000,2.132900
1730864218416,-8.448700,-11.349700,2.235500,0.151400,0.004100,10.642800,0.142000,0.031300,2.153800
1730864218426,-13.951700,-9.338500,5.316000,0.594500,0.400500,10.498500,0.121200,0.081600,2.140300
1730864218436,-17.226500,-6.960900,8.007600,0.611300,0.351400,10.305100,0.124600,0.071600,2.100900
1730864218446,-21.428500,-3.880400,8.807600,0.492700,0.128700,10.304500,0.100400,0.026200,2.100800
1730864218455,-25.279000,-1.136400,8.374000,0.550200,0.162200,10.264400,0.112100,0.033000,2.092600
1730864218466,-28.000600,0.171900,6.766500,0.393300,0.411300,10.242300,0.080200,0.146300,2.075000
1730864218476,-32.023100,2.138300,2.190700,0.314300,0.613100,10.331500,0.049400,0.157500,2.108300
1730864218486,-34.415700,4.134600,0.134500,0.488500,0.863400,10.803300,0.099600,0.176000,2.202500
1730864218496,-37.481200,6.071100,-2.243000,0.619700,0.807100,11.330800,0.126300,0.164500,2.310000
1730864218506,-39.956000,7.626300,-3.790700,0.364000,0.387300,11.524800,0.074200,0.078900,2.349600
1730864218516,-41.242000,7.192600,-5.323400,0.017300,0.502300,11.464300,0.003500,0.102400,2.337200
1730864218526,-42.012100,4.411300,-5.884200,0.008300,0.731000,11.164900,0.003200,0.175100,2.152400
1730864218536,-40.270000,0.022400,-5.278600,0.035300,1.138800,10.147000,0.007200,0.232100,2.068700
1730864218546,-39.006500,0.067200,-4.373900,0.195700,1.477700,10.005700,0.039900,0.301200,2.039900
1730864218556,-36.494200,0.448600,-3.334600,0.313100,1.693800,9.975200,0.063800,0.345300,2.033600
1730864218566,-31.753900,-2.781300,-2.295300,0.361600,1.878200,9.975800,0.073700,0.382900,2.033800
1730864218576,-25.742600,-7.065500,-1.084100,0.466400,1.905200,9.851900,0.095000,0.388400,2.008500
1730864218586,-19.611600,-16.291900,0.052300,0.374200,1.863900,9.757300,0.053500,0.365200,1.967800
1730864218596,-9.959100,-19.118100,0.328900,0.167600,1.533400,9.520800,0.034100,0.312600,1.941000
1730864218606,-6.811300,-20.852800,0.829900,0.051400,1.343000,9.426700,0.010400,0.273800,1.921800
1730864218616,-4.777600,-22.609800,-1.772000,0.294500,1.404000,9.357300,0.060000,0.286200,1.907700
1730864218626,-3.177600,-24.748200,-2.886000,0.360400,1.493800,9.304600,0.073400,0.304500,1.896900
1730864218636,0.874700,-25.196800,-3.895400,0.508900,1.371700,9.188400,0.103700,0.248400,1.849600
1730864218646,1.263500,-20.650900,-5.495400,0.675900,1.213600,8.919000,0.150800,0.236200,1.840900
1730864218656,0.755100,-16.478800,-6.370200,0.755600,1.178900,9.077100,0.154000,0.240300,1.850500
1730864218666,0.695300,-12.142300,-6.871100,0.721400,1.096300,9.134000,0.147000,0.223500,1.862100
1730864218676,-2.302800,-8.000100,-7.274900,0.663400,1.011200,9.220200,0.135200,0.206100,1.879700
1730864218686,-3.992600,-4.545800,-7.102900,0.494500,0.928600,9.375300,0.100800,0.189300,1.911300
1730864218696,-6.287900,-1.540200,-6.310400,0.389700,1.002900,9.366900,0.088300,0.198200,1.893000
1730864218705,-8.538500,0.059800,-5.824400,0.474200,0.851400,9.347100,0.096600,0.173500,1.905600
1730864218715,-9.607600,0.089700,-5.502900,0.450800,0.778300,9.589000,0.091900,0.158600,1.954900
1730864218725,-11.140400,0.171900,-4.874800,0.338800,0.670600,9.718900,0.069000,0.136700,1.981400
1730864218735,-12.523600,0.732700,-4.261700,0.228100,0.686700,9.820100,0.046500,0.140000,2.002000
1730864218746,-13.817100,-2.272900,-3.947700,0.091000,0.900500,9.848900,0.018500,0.183500,2.007900
1730864218755,-14.691900,-4.149600,-3.775700,0.073600,1.213000,9.792600,0.029500,0.286700,1.974700
1730864218765,-15.626500,-4.187000,-3.723400,0.374800,1.316000,9.640500,0.076400,0.268300,1.965400
1730864218775,-15.693800,-3.798200,-4.044900,0.618500,1.143600,9.600400,0.126000,0.233100,1.957200
1730864218785,-15.828300,-3.087900,-4.785100,0.698700,1.032800,9.527900,0.142400,0.210500,1.942500
1730864218795,-16.015300,-2.519600,-5.181400,0.683700,0.996900,9.515400,0.139400,0.203200,1.939900
1730864218805,-16.187200,-2.071000,-5.016900,0.541200,0.963300,9.528500,0.110300,0.212400,1.934300
1730864218815,-16.546100,-4.201900,-4.755200,0.413700,1.041800,9.487800,0.080000,0.255100,1.909600
1730864218825,-16.082600,-4.927200,-4.785100,0.438200,1.311800,9.185400,0.089300,0.267400,1.872600
1730864218835,-15.805900,-3.753300,-4.837400,0.459800,1.210600,9.044700,0.093700,0.246800,1.843900
1730864218845,-16.277000,-1.151400,-4.732800,0.452600,1.043000,9.055500,0.092200,0.212600,1.846100
1730864218855,-17.458300,1.323300,-4.523400,0.513700,0.865200,9.144100,0.104700,0.176300,1.864200
1730864218865,-19.088200,3.790700,-4.590700,0.517900,0.764000,9.262100,0.124200,0.164400,1.901800
1730864218875,-22.161200,8.149700,-4.418700,0.732800,0.989100,9.363300,0.149400,0.201600,1.908900
1730864218885,-22.684600,9.562800,-3.865500,0.702900,1.269900,9.378800,0.143300,0.258900,1.912100
1730864218895,-22.228500,8.889900,-3.641200,0.625100,1.515400,9.458500,0.127400,0.308900,1.928300
1730864218905,-20.852800,6.280500,-4.089800,0.584300,1.627400,9.516000,0.119100,0.331700,1.940000
1730864218915,-18.983600,2.788800,-5.054300,0.571800,1.607000,9.527300,0.116500,0.327600,1.942300
1730864218925,-17.495700,-3.783200,-7.514100,0.632200,1.548300,9.626700,0.119600,0.294400,1.974200
1730864218935,-17.286300,-4.523400,-8.074900,0.525700,1.347700,9.711800,0.107100,0.274700,1.979900
1730864218945,-17.488200,-4.142100,-8.007600,0.519700,1.319000,9.856100,0.105900,0.268900,2.009300
1730864218955,-17.510600,-3.925300,-7.947800,0.529200,1.339400,9.991400,0.107900,0.273000,2.036900
1730864218965,-17.450800,-3.708400,-7.402000,0.529800,1.369900,9.921900,0.108000,0.279200,2.022800
1730864218975,-17.510600,-3.244900,-6.527200,0.380200,1.320800,9.915300,0.077500,0.259600,2.034700
1730864218985,-19.013500,-2.661700,-5.502900,0.274200,1.273500,9.980600,0.080000,0.253400,2.046300
1730864218995,-20.396700,-2.183200,-5.001900,0.574800,1.123800,9.970400,0.117100,0.229100,2.032700
1730864219005,-22.079000,-1.300900,-4.508500,0.716100,1.077100,9.802200,0.145900,0.219600,1.998400
1730864219015,-23.305200,0.164400,-4.299100,0.858000,1.212400,9.500400,0.174900,0.247100,1.936800
1730864219025,-23.327600,0.777500,-4.127100,0.855600,1.474100,9.280100,0.174400,0.300500,1.891900
1730864219035,-22.527600,2.228000,-3.962700,0.777100,1.686000,9.181900,0.149700,0.358300,1.847900
1730864219045,-20.665800,5.772000,-3.147700,0.590900,1.878800,9.044100,0.120400,0.383000,1.843800
1730864219055,-19.649000,4.792600,-2.968200,0.352600,1.948900,9.108800,0.071800,0.397300,1.857000
1730864219065,-18.497600,2.945800,-2.736500,0.213700,1.775300,9.199200,0.043500,0.361900,1.875400
1730864219074,-18.063900,1.450500,-2.549500,0.156800,1.575900,9.351900,0.031900,0.321200,1.906600
1730864219084,-18.250800,0.575700,-2.093500,0.174200,1.525600,9.586600,0.035500,0.311000,1.954400
1730864219094,-19.260200,-6.557100,0.568200,0.238900,1.601000,9.823700,0.076700,0.325100,2.026800
1730864219104,-23.170600,-8.725400,0.134500,0.493300,1.487900,9.918300,0.100500,0.303300,2.022000
1730864219114,-25.675300,-10.138500,0.186900,0.561000,1.487900,9.839900,0.114300,0.303300,2.006100
1730864219124,-28.015500,-10.355300,0.441100,0.638200,1.535800,9.726100,0.130100,0.313100,1.982900
1730864219134,-30.168900,-9.697400,0.643000,0.672400,1.780600,9.554300,0.137000,0.363000,1.947800
1730864219144,-31.694100,-9.151600,0.814900,0.636400,2.144100,9.423800,0.129700,0.481900,1.904700
1730864219154,-31.671700,-10.071200,1.734600,0.602900,2.363800,9.342900,0.125400,0.479900,1.893300
1730864219164,-30.946500,-11.798400,1.921500,0.650800,2.260200,9.232800,0.132600,0.460800,1.882300
1730864219174,-30.535200,-13.966600,1.816800,0.743000,2.217700,9.250700,0.151400,0.452100,1.885900
1730864219184,-30.191300,-16.149900,1.786900,0.846600,2.197400,9.229800,0.172600,0.447900,1.881700
1730864219194,-29.899700,-17.435900,1.884100,0.931600,2.073400,9.157300,0.189900,0.422700,1.866900
1730864219204,-29.862300,-17.181700,1.921500,0.962700,2.044700,9.082500,0.187100,0.442900,1.852000
1730864219214,-30.124000,-14.774100,1.435500,0.904100,2.277600,9.136900,0.184300,0.464300,1.862700
1730864219224,-29.503400,-14.347900,1.061700,0.994500,2.399800,9.163300,0.202700,0.489200,1.868100
1730864219234,-28.284700,-14.228300,0.485900,0.936400,2.566200,9.174700,0.190900,0.523100,1.870400
1730864219244,-26.976300,-13.555400,0.403700,0.866900,2.581800,9.304600,0.176700,0.526300,1.896900
1730864219254,-25.802400,-13.002100,0.478500,0.871700,2.468000,9.380600,0.177700,0.503100,1.912400
1730864219264,-25.107100,-14.624600,1.114000,0.853800,2.429100,9.362700,0.160800,0.528300,1.894700
1730864219274,-25.099600,-15.850800,1.315900,0.675300,2.710500,9.190200,0.137600,0.552600,1.873600
1730864219284,-25.877200,-16.777900,1.345800,0.652000,2.705700,9.126200,0.132900,0.551600,1.860500
1730864219294,-27.073500,-17.592900,1.188800,0.804100,2.666200,9.136400,0.163900,0.543500,1.862600
1730864219304,-28.695900,-17.413400,0.837400,-1.051400,2.677000,9.235700,0.214300,0.545700,1.882900
1730864219314,-30.348300,-16.067600,0.725200,-1.245400,2.723100,9.275300,0.253900,0.571700,1.894500
1730864219324,-32.127800,-10.303000,0.530800,-1.362700,2.804500,9.292600,0.284000,0.585600,1.886900
1730864219334,-32.703500,-6.751500,0.508400,-1.370500,2.864400,9.182500,0.279400,0.583900,1.872000
1730864219344,-33.376400,-3.641200,0.508400,-1.197500,2.881200,9.116000,0.244100,0.587400,1.858500
1730864219354,-34.333400,-1.390600,0.418700,-1.084900,2.919500,9.078900,0.221100,0.595200,1.850900
1730864219364,-35.073600,0.314000,0.433600,-1.168700,2.974600,9.011200,0.238200,0.606400,1.837100
1730864219374,-35.567100,0.000000,0.186900,-1.231000,3.060200,8.934000,0.226900,0.643000,1.818100
1730864219383,-34.856800,0.971900,0.396200,0.931600,3.223000,8.895100,0.189900,0.657100,1.813400
1730864219394,-34.318500,-2.990700,0.755100,0.862200,3.247600,8.671100,0.175700,0.662100,1.767800
1730864219404,-34.213800,-5.114100,1.218700,-1.014800,3.299700,8.443600,0.206900,0.672700,1.721400
1730864219414,-33.892300,-6.923500,1.278500,-1.178300,3.299100,8.390300,0.240200,0.672600,1.710500
1730864219424,-33.406300,-7.686100,0.852300,-1.335800,3.313500,8.472300,0.272300,0.675500,1.727200
1730864219434,-32.539000,-7.686100,0.553200,-1.363300,3.465500,8.583700,0.244600,0.728700,1.792100
1730864219443,-29.899700,-8.762800,0.852300,-1.071700,3.637400,9.007000,0.218500,0.741500,1.836300
1730864219454,-28.688500,-11.028200,-1.091600,-1.207600,3.619400,9.041700,0.246200,0.737900,1.843300
1730864219474,-26.557600,-15.013400,-2.377600,-1.577100,3.609200,8.794500,0.321500,0.735800,1.792900
1730864219493,-24.912700,-8.112300,-4.000000,-1.625000,3.687100,8.765100,0.330300,0.765900,1.794500
1730864219503,-24.449100,-5.099100,-4.142100,-1.631000,3.738600,8.808800,0.332500,0.762200,1.795800
1730864219513,-24.217300,-3.080400,-4.029900,-1.600400,3.666700,8.703500,0.326200,0.747500,1.774400
1730864219523,-24.000500,-1.585000,-3.940200,-1.559700,3.652400,8.487300,0.317900,0.744600,1.730300
1730864219533,-24.224800,0.186900,-3.813100,-1.508200,3.693700,8.299900,0.307400,0.753000,1.692100
1730864219543,-24.269700,1.345800,-3.813100,-1.462700,3.798500,8.233400,0.263300,0.797900,1.670400
1730864219553,-24.157500,2.773800,-3.566400,-1.142400,4.048700,8.264000,0.232900,0.825400,1.684800
1730864219563,-23.851000,2.781300,-3.132700,-1.068100,4.088200,8.428000,0.217700,0.833400,1.718200
1730864219573,-23.252800,1.353300,-2.751400,-1.188500,4.049300,8.613600,0.242300,0.825500,1.756100
1730864219583,-22.707000,-1.420500,-2.669200,-1.368700,4.045700,8.741800,0.279000,0.824800,1.782200
1730864219592,-21.989200,-4.478600,-2.684100,-1.472900,4.131400,8.848900,0.300200,0.842200,1.804000
1730864219603,-21.017300,-8.448700,-2.616800,-1.577100,4.211000,8.813000,0.325600,0.863700,1.789400
1730864219613,-18.078900,-9.772100,-2.601900,-1.640500,4.170300,8.724400,0.334400,0.850200,1.778600
1730864219623,-16.142400,-10.146000,-2.624300,-1.774100,4.067300,8.618400,0.361600,0.829200,1.757000
1730864219643,-13.817100,-6.848700,-3.013100,-1.992000,3.875700,8.296300,0.406100,0.790100,1.691400
1730864219653,-13.577800,-4.418700,-3.760800,-2.015400,3.799000,8.111300,0.410800,0.770700,1.644700
1730864219663,-14.228300,0.874700,-4.949600,-1.932700,3.780500,8.067600,0.380700,0.771700,1.637600
1730864219673,-14.908700,2.901000,-5.323400,-1.722600,3.963700,8.005900,0.351100,0.808100,1.632200
1730864219683,-15.327400,3.715900,-5.233700,-1.486100,4.128400,8.026900,0.302900,0.841600,1.636400
1730864219693,-14.983500,2.923400,-4.770200,-1.410600,4.222400,8.080100,0.287500,0.860800,1.647300
1730864219703,-14.362900,1.263500,-4.388800,-1.425600,4.308600,8.173600,0.290600,0.878400,1.666300
1730864219713,-13.884400,0.373800,-4.119700,-1.527400,4.331900,8.376500,0.328300,0.877800,1.763300
1730864219723,-12.822700,0.553200,-3.970100,-1.661500,4.313400,8.795700,0.338700,0.879300,1.793200
1730864219733,-12.366600,1.084100,-4.127100,-1.645900,4.364300,8.800400,0.335500,0.889700,1.794100
1730864219743,-11.790900,0.904600,-4.321500,-1.593200,4.433700,8.717200,0.324800,0.903900,1.777200
1730864219753,-10.968400,0.336400,-4.762700,-1.562100,4.486400,8.631000,0.318400,0.914600,1.759600
1730864219763,-10.093600,0.568200,-5.054300,-1.482500,4.545700,8.508300,0.302200,0.926700,1.734600
1730864219772,-9.480500,3.155200,-4.882300,-1.362100,4.511600,8.408900,0.255000,0.899600,1.710900
1730864219782,-9.473100,3.484100,-4.575800,-1.219600,4.306200,8.367500,0.248600,0.877900,1.705900
1730864219792,-9.435700,2.407500,-4.321500,-1.207600,4.237900,8.338800,0.246200,0.864000,1.700000
1730864219802,-9.787100,0.971900,-4.246800,-1.190300,4.239700,8.302300,0.242600,0.864300,1.692600
1730864219812,-10.512300,0.171900,-3.895400,-1.176500,4.232500,8.261000,0.239800,0.862900,1.684200
1730864219822,-11.327300,-1.114000,-3.334600,-1.210000,4.231400,8.248400,0.246700,0.878700,1.678500
1730864219832,-13.824600,-2.863600,-2.377600,-1.301600,4.310400,8.233400,0.279900,0.892900,1.675700
1730864219842,-14.961000,-3.035500,-1.884100,-1.430400,4.409200,8.296900,0.291600,0.898900,1.691500
1730864219852,-16.097500,-3.132700,-1.644800,-1.483100,4.459500,8.405900,0.302300,0.909100,1.713700
1730864219862,-16.740500,-2.923400,-1.502800,-1.509400,4.543900,8.540000,0.307700,0.926300,1.741000
1730864219872,-16.763000,-2.796300,-1.271000,-1.518400,4.575600,8.556800,0.309500,0.932800,1.744500
1730864219882,-16.306900,-2.841100,-1.256100,-1.496200,4.525300,8.493900,0.288800,0.916700,1.723200
1730864219892,-15.506800,-2.003700,-1.734600,-1.375300,4.501400,8.436400,0.280300,0.917700,1.719900
1730864219902,-14.833900,-1.742000,-1.839200,-1.341800,4.561300,8.481300,0.273500,0.929900,1.729100
1730864219912,-13.854500,-2.257900,-1.749500,-1.304000,4.634300,8.549000,0.265800,0.944800,1.742900
1730864219922,-12.912400,-3.446800,-1.428000,-1.236400,4.709800,8.624400,0.252000,0.960200,1.758300
1730864219932,-12.389000,-4.957100,0.882200,-1.204600,4.783400,8.594500,0.245600,0.975200,1.752100
1730864219942,-11.910500,-7.850600,0.007400,-1.204000,4.737300,8.523800,0.264200,0.953400,1.706900
1730864219952,-12.650700,-8.493600,0.059800,-1.393300,4.650500,8.280700,0.284000,0.948100,1.688200
1730864219962,-13.503100,-8.134700,0.044800,-1.462700,4.657700,8.224400,0.298200,0.949500,1.676700
1730864219972,-14.303100,-7.140300,0.097100,-1.507600,4.685200,8.226200,0.307300,0.955200,1.677100
1730864219982,-14.407800,-6.250600,0.299000,-1.554300,4.731900,8.261600,0.316800,0.964700,1.684300
1730864219992,-13.989100,-5.906600,0.269100,-1.624400,4.718100,8.232200,0.331100,0.964300,1.670100
1730864220001,-13.316100,-4.276700,0.366300,-1.622600,4.730100,8.192100,0.315700,0.974400,1.661100
1730864220012,-12.389000,-3.895400,0.403700,-1.525000,4.760100,8.195100,0.310900,0.970400,1.670700
1730864220022,-11.417000,-3.947700,0.381300,-1.566900,4.706800,8.211300,0.319400,0.959500,1.674000
1730864220031,-10.452500,-3.880400,0.411200,-1.553700,4.740900,8.163400,0.316700,0.966500,1.664300
1730864220041,-9.443200,-3.940200,0.284100,-1.438200,4.820500,8.168800,0.293200,0.982700,1.665400
1730864220052,-8.119800,-4.411300,0.321500,-1.398000,4.841500,8.206500,0.287100,0.982000,1.675400
1730864220062,-6.243100,-6.101000,0.216800,-1.419600,4.844500,8.184300,0.289400,0.987600,1.668500
1730864220072,-5.951500,-6.579500,0.104600,-1.395600,4.824700,8.146000,0.284500,0.983600,1.660700
1730864220082,-5.824400,-6.699200,0.074700,-1.410600,4.786400,8.087300,0.287500,0.975800,1.648800
1730864220092,-5.615000,-6.587000,0.089700,-1.522000,4.728300,7.986100,0.310300,0.963900,1.628100
1730864220102,-5.218800,-6.392600,0.052300,-1.628600,4.718100,7.898700,0.332000,0.961900,1.610300
1730864220111,-2.422400,-5.241200,0.149500,-1.678900,4.728900,7.848400,0.342000,0.966600,1.598900
1730864220121,-1.727100,-4.687900,0.366300,-1.630400,4.700800,7.922100,0.332300,0.958300,1.615100
1730864220131,0.508400,-4.717800,0.478500,-1.642300,4.664300,8.025100,0.334800,0.950900,1.636100
1730864220141,0.246700,-5.091700,0.687800,-1.674100,4.707400,8.137000,0.341300,0.959700,1.658900
1730864220150,1.360700,-5.398200,0.807400,-1.760300,4.750500,8.204100,0.358800,0.968500,1.672600
1730864220160,2.624300,-5.271100,0.897200,-1.839900,4.758900,8.214300,0.375100,0.969200,1.660500
1730864220171,5.936500,-3.304700,-1.128900,-1.856100,4.754100,8.175900,0.362300,0.972400,1.666800
1730864220181,6.878600,-2.310300,-1.547600,-1.668700,4.750500,8.259200,0.340200,0.968500,1.683800
1730864220191,7.237500,-1.682200,-1.831800,-1.610000,4.762400,8.359800,0.328200,0.970900,1.704300
1730864220201,7.402000,-1.562600,-2.018700,-1.632200,4.708000,8.425600,0.332700,0.959800,1.717700
1730864220211,7.476800,-1.069100,-2.175700,-1.666900,4.676800,8.418400,0.339800,0.953400,1.716300
1730864220221,7.095400,0.366300,-2.310300,-1.578900,4.722900,8.410700,0.310400,0.953400,1.717600
1730864220231,7.155300,0.246700,-2.168200,-1.489100,4.621700,8.450200,0.303500,0.942200,1.722700
1730864220241,7.147800,-1.121500,-2.018700,-1.485500,4.636700,8.459800,0.302800,0.945300,1.724700
1730864220251,7.073000,-2.504700,-1.742000,-1.542900,4.661900,8.469300,0.314500,0.950400,1.726600
1730864220261,6.893600,-3.364500,-1.540200,-1.641100,4.645700,8.493300,0.334500,0.947100,1.731500
1730864220271,6.332800,-3.259800,-1.330800,-1.689000,4.623500,8.458600,0.344300,0.942600,1.724400
1730864220281,5.719700,-1.876600,-1.300900,-1.726200,4.586400,8.437000,0.349800,0.936800,1.720900
1730864220291,5.405700,0.979400,-1.248600,-1.674100,4.598400,8.520200,0.341300,0.937500,1.737000
1730864220301,5.727200,0.687800,-1.128900,-1.599800,4.571400,8.588500,0.326100,0.932000,1.750900
1730864220311,6.033700,-1.472900,0.964500,-1.607000,4.478600,8.535200,0.327600,0.913000,1.740100
1730864220321,6.310400,-2.616800,0.957000,-1.635700,4.379200,8.418400,0.333400,0.892800,1.716300
1730864220331,6.250600,-2.975700,0.942000,-1.682500,4.337900,8.313700,0.343000,0.885300,1.673900
1730864220341,6.706600,-2.975700,0.942000,-1.675300,4.342700,8.204100,0.336700,0.885700,1.672600
1730864220351,7.125300,-3.229900,0.837400,-1.674100,4.323000,8.236400,0.341300,0.881300,1.679100
1730864220361,7.581400,-3.349600,0.747600,-1.716000,4.303200,8.247800,0.349800,0.877300,1.681500
1730864220371,7.828200,-3.132700,0.672900,-1.715400,4.294800,8.292700,0.349700,0.875600,1.690600
1730864220381,8.119800,-2.908400,0.695300,-1.661500,4.299600,8.315500,0.338700,0.876500,1.695300
1730864220391,8.463700,-2.332700,0.792500,-1.660300,4.279900,8.396300,0.344700,0.860300,1.714500
1730864220401,8.755300,0.725200,-1.248600,-1.728000,4.149900,8.354400,0.352200,0.846000,1.703200
1730864220410,8.874900,0.000000,-1.472900,-1.690200,4.152300,8.324400,0.344600,0.846500,1.697100
1730864220420,9.495500,0.471000,-1.689700,-1.601600,4.188200,8.350800,0.326500,0.853800,1.702500
1730864220431,10.370300,0.433600,-1.899100,-1.553700,4.217600,8.438800,0.316700,0.859800,1.720400
1730864220441,11.334800,0.022400,-1.958900,-1.550700,4.229600,8.534600,0.316100,0.862300,1.739900
1730864220451,11.955400,0.994400,-2.250500,-1.517800,4.226000,8.611200,0.298900,0.858600,1.755800
1730864220461,13.002100,-1.300900,-2.130800,-1.493800,4.173900,8.607100,0.304500,0.850900,1.754700
1730864220471,13.525500,-1.457900,-2.257900,-1.569900,4.166700,8.629200,0.320000,0.849400,1.759200
1730864220481,13.966600,-1.076600,-2.452300,-1.630400,4.148100,8.671700,0.332300,0.845700,1.767900
1730864220490,14.706800,0.456000,-2.564500,-1.707000,4.069100,8.702300,0.348000,0.829500,1.774100
1730864220500,15.342400,0.239200,-2.871000,-1.727400,3.986500,8.687900,0.352100,0.805400,1.768700
1730864220510,16.957300,2.168200,-3.618700,-1.698000,3.950500,8.652000,0.337400,0.796300,1.763900
1730864220520,18.071400,2.699100,-3.895400,-1.608800,3.827800,8.630400,0.328000,0.780300,1.759500
1730864220530,19.387300,2.557000,-4.007500,-1.505200,3.764900,8.589100,0.306800,0.767500,1.751000
1730864220540,20.449000,2.272900,-4.179500,-1.508800,3.747000,8.555600,0.307600,0.763900,1.744200
1730864220550,21.473300,2.489700,-4.231800,-1.580700,3.747000,8.550200,0.322200,0.763900,1.743100
1730864220560,22.445300,3.200000,-4.448600,-1.683600,3.715200,8.558600,0.343300,0.746500,1.761700
1730864220570,24.464100,3.910300,-5.076700,-1.647700,3.589500,8.710000,0.335900,0.731800,1.775700
1730864220580,25.361300,4.441200,-5.278600,-1.581300,3.550000,8.785500,0.322300,0.723700,1.791100
1730864220590,26.071600,5.106600,-5.532800,-1.478300,3.508700,8.867500,0.301300,0.715300,1.807800
1730864220600,26.744500,5.674800,-5.585100,-1.371700,3.424200,8.917200,0.279600,0.698100,1.817900
1730864220610,27.140800,5.570200,-5.450500,-1.343000,3.329000,8.904600,0.273800,0.678700,1.815400
1730864220620,27.626800,4.119700,-5.278600,-1.356700,3.289500,8.901000,0.286900,0.670200,1.823600
1730864220630,28.718400,3.738400,-5.144000,-1.427400,3.278100,8.980100,0.291000,0.668300,1.830800
1730864220639,29.353900,3.618700,-4.874800,-1.416600,3.220100,9.010000,0.288800,0.656400,1.836900
1730864220649,29.675400,3.499100,-4.590700,-1.404600,3.150000,9.031000,0.286300,0.642200,1.841100
1730864220660,30.124000,3.529000,-4.321500,-1.404000,3.100900,9.037600,0.286200,0.632200,1.842500
1730864220670,30.430600,3.895400,-4.291600,-1.401000,3.077000,8.968100,0.285600,0.612700,1.824800
1730864220680,30.849300,6.250600,-4.134600,-1.397400,3.005700,8.950700,0.282300,0.598700,1.824800
1730864220690,30.976400,7.215100,-4.254300,-1.300400,2.900900,9.078300,0.265100,0.591400,1.850800
1730864220700,31.043700,7.686100,-4.306600,-1.251900,2.866200,9.213600,0.255200,0.584300,1.878400
1730864220710,30.819300,7.514100,-4.276700,-1.221400,2.791300,9.259700,0.249000,0.569000,1.887800
1730864220720,30.460500,7.147800,-4.314100,-1.240600,2.724300,9.300400,0.252900,0.555400,1.896100
1730864220730,30.034300,6.706600,-4.403800,-1.299800,2.703300,9.269300,0.261500,0.545100,1.887300
1730864220740,29.660400,6.714100,-4.747700,-1.253700,2.583600,9.278300,0.255600,0.526700,1.891600
1730864220750,29.615600,6.908500,-4.852400,-1.225600,2.470400,9.285400,0.249800,0.503600,1.893000
1730864220760,29.361400,7.095400,-5.061700,-1.211200,2.404000,9.283600,0.246900,0.490100,1.892700
1730864220770,29.368800,7.431900,-5.099100,-1.267500,2.355500,9.326800,0.258400,0.480200,1.901400
1730864220780,29.608100,8.299200,-5.106600,-1.322000,2.298600,9.373500,0.269500,0.468600,1.911000
1730864220790,31.918400,10.003900,-5.330900,-1.348300,2.239900,9.383000,0.265000,0.452800,1.915100
1730864220800,31.701600,10.475000,-5.547700,-1.242400,2.234500,9.408200,0.253200,0.455500,1.918000
1730864220810,32.568900,10.751600,-5.727200,-1.136400,2.238700,9.432100,0.231600,0.456400,1.922900
1730864220820,33.526000,10.258100,-5.981400,-1.016000,2.208800,9.481800,0.207100,0.450300,1.933100
1730864220829,34.460600,9.263700,-6.198200,0.965700,2.099200,9.557900,0.196800,0.427900,1.948600
1730864220839,35.051200,8.374000,-6.302900,0.997500,2.030300,9.627900,0.203300,0.397300,1.969700
1730864220849,34.744700,8.067400,-6.519700,-1.038800,1.948900,9.642300,0.218900,0.382600,1.965800
1730864220859,34.916600,8.934700,-6.519700,-1.052600,1.790800,9.624300,0.214500,0.365100,1.962100
1730864220869,35.283000,9.607600,-6.527200,0.932800,1.739300,9.644700,0.190100,0.354600,1.966300
1730864220879,35.873700,10.101100,-6.377700,0.801100,1.654300,9.675800,0.163300,0.337200,1.972600
1730864220889,36.606400,9.585200,-6.145900,0.694500,1.598600,9.732700,0.141600,0.325900,1.984200
1730864220899,37.384000,8.291700,-3.962700,0.661000,1.526200,9.798000,0.144500,0.298300,2.000300
1730864220909,38.236300,5.622500,-5.390700,0.813700,1.448300,9.812900,0.165800,0.295200,2.000600
1730864220919,38.714900,4.725300,-5.345900,0.871100,1.412400,9.796800,0.177600,0.287900,1.997300
1730864220929,39.133600,4.583200,-5.450500,0.895100,1.360900,9.765000,0.182400,0.277400,1.990800
1730864220939,39.290600,5.323400,-5.443100,0.910100,1.237000,9.687800,0.185500,0.252100,1.975000
1730864220949,39.290600,6.078600,-5.428100,0.887900,1.057900,9.678200,0.181000,0.215600,1.973100
1730864220959,38.999000,7.110400,-5.689800,0.881900,0.935800,9.662100,0.179300,0.185900,1.974600
1730864220969,38.662500,7.387000,-5.682300,0.854400,0.898100,9.761500,0.174100,0.183100,1.990100
1730864220979,38.931700,7.439400,-5.719700,0.828000,0.871100,9.792600,0.168800,0.177600,1.996400
1730864220989,39.529800,7.446800,-5.794500,0.783700,0.834000,9.754900,0.159700,0.170000,1.988700
1730864220999,40.068200,7.387000,-5.869200,0.783100,0.771100,9.711800,0.159600,0.157200,1.979900
1730864221009,40.591500,7.357100,-5.854300,0.777700,0.642400,9.694400,0.156700,0.105100,1.973100
1730864221019,39.858800,7.349700,-6.355200,0.768800,0.362200,9.610600,0.147000,0.086700,1.959300
1730864221029,39.275600,7.611300,-6.452400,0.705300,0.382600,9.562100,0.143700,0.078000,1.949400
1730864221039,38.468100,8.007600,-6.706600,0.687300,0.329900,9.513600,0.140100,0.067200,1.939500
1730864221049,37.548500,8.493600,-6.990800,0.614900,0.280800,9.517800,0.125300,0.057200,1.940400
1730864221059,36.920400,8.508600,-7.035600,0.583700,0.196300,9.523100,0.119000,0.040000,1.941500
1730864221069,36.382100,8.545900,-6.796400,0.607700,0.073600,9.495000,0.123900,0.005800,1.930700
1730864221079,34.901700,9.727300,-5.914100,0.661000,0.067000,9.459700,0.134700,0.013600,1.928500
1730864221089,33.653100,10.975900,-5.682300,0.728600,0.186800,9.545300,0.148500,0.038000,1.946000
1730864221099,32.284800,12.852600,-5.510400,0.761600,0.241800,9.597400,0.155200,0.049300,1.956600
1730864221109,30.998800,14.505000,-5.383300,0.695100,0.263400,9.671000,0.141700,0.053700,1.971600
1730864221119,29.937100,15.237700,-5.577600,0.568800,0.249000,9.734500,0.115900,0.050700,1.984600
1730864221129,29.914700,14.452600,-6.220700,0.447800,0.212500,9.796200,0.077800,0.053500,1.992600
1730864221139,30.542700,13.802100,-6.691700,0.300500,0.346000,9.721300,0.061200,0.070500,1.981900
1730864221149,31.357700,12.867500,-6.811300,0.448400,0.447200,9.639300,0.091400,0.091100,1.965200
1730864221159,32.097900,12.247000,-6.766500,0.462800,0.530400,9.592600,0.094300,0.108100,1.955600
1730864221169,32.501600,11.409600,-6.848700,0.325700,0.605300,9.592000,0.066400,0.123400,1.955500
1730864221178,32.875500,10.123500,-7.013200,0.288500,0.694500,9.662700,0.050200,0.167600,1.984900
1730864221188,33.391400,6.534700,-7.544000,0.246600,0.822000,9.784200,0.039700,0.173800,1.994700
1730864221198,33.668000,4.351500,-7.095400,0.163400,0.963900,9.808200,0.033300,0.196500,1.999600
1730864221208,33.825000,1.555100,-6.684200,0.062200,0.938800,9.862000,0.012600,0.191400,2.010600
1730864221218,33.997000,-1.084100,-6.437500,0.046100,0.998700,9.878800,0.009300,0.203600,2.014000
1730864221228,33.600700,-3.020600,-6.086100,0.135300,-1.187900,9.907500,0.027500,0.242100,2.019800
1730864221238,33.197000,-4.643000,-5.301000,0.250800,-1.300400,9.865600,0.073400,0.280600,1.991900
1730864221248,31.305300,-4.658000,-4.254300,0.395700,-1.458500,9.638700,0.080600,0.297300,1.965000
1730864221258,29.697800,-4.082300,-3.701000,0.442400,-1.489700,9.568100,0.090200,0.303700,1.950600
1730864221268,27.836100,-3.446800,-3.409400,0.485500,-1.493800,9.566300,0.098900,0.304500,1.950300
1730864221278,25.697700,-2.295300,-2.945800,0.552600,-1.532200,9.525500,0.112600,0.312300,1.942000
1730864221288,23.350000,0.246700,-2.452300,0.596300,-1.601600,9.471700,0.121500,0.326500,1.931000
1730864221298,19.798500,3.783200,-1.876600,0.505900,-1.630400,9.386000,0.091700,0.338700,1.904100
1730864221308,18.497600,4.934600,-1.734600,0.385500,-1.653700,9.321400,0.078600,0.337100,1.900300
1730864221318,17.884500,5.570200,-1.495300,0.290900,-1.694400,9.274700,0.059300,0.345400,1.890800
1730864221328,17.204100,6.243100,-1.256100,0.209500,-1.690800,9.260300,0.042700,0.344700,1.887900
1730864221338,16.605900,6.661800,0.874700,0.221500,-1.683000,9.280100,0.045100,0.343100,1.891900
1730864221348,16.187200,6.265500,0.583100,0.208300,-1.654300,9.406400,0.033800,0.341700,1.928400
1730864221358,17.039600,4.254300,0.343900,0.165800,-1.700400,9.453100,0.023500,0.346600,1.927200
1730864221368,18.004100,3.297200,0.373800,0.154400,-1.790200,9.409400,0.031400,0.364900,1.918300
1730864221378,18.789200,2.901000,0.575700,0.285600,-1.942300,9.358500,0.058200,0.395900,1.907900
1730864221388,18.983600,3.267300,0.927100,0.370000,-2.107600,9.283000,0.075400,0.429600,1.892500
1730864221398,18.961100,4.538400,0.986900,0.362800,-2.194400,9.183700,0.073900,0.447300,1.872300
1730864221408,18.721900,5.749600,0.874700,0.281400,-2.208200,9.129800,0.050500,0.447900,1.860200
1730864221418,19.260200,6.886100,0.613000,0.179600,-2.078200,9.132200,0.036600,0.423700,1.861800
1730864221428,19.895700,7.207600,0.306500,0.113700,-2.001000,9.141700,0.023100,0.407900,1.863700
1730864221438,20.194800,7.020700,0.142000,0.095200,-2.038700,9.222600,0.019400,0.415600,1.880200
1730864221448,20.516300,6.661800,0.164400,0.057400,-2.147100,9.301000,0.011700,0.437700,1.896200
1730864221458,20.164900,6.587000,0.179400,0.050800,-2.326100,9.292600,0.010300,0.474200,1.894500
1730864221468,18.602200,7.446800,0.119600,0.141300,-2.470400,9.292000,0.039900,0.515900,1.894800
1730864221478,17.951800,8.904800,0.127100,0.186200,-2.603900,9.350100,0.037900,0.530800,1.906200
1730864221488,17.196600,11.020800,0.029900,0.176600,-2.693700,9.427900,0.036000,0.549100,1.922100
1730864221498,16.643300,13.106800,0.269100,0.188600,-2.746400,9.507000,0.038400,0.559900,1.938200
1730864221508,16.523700,15.267600,0.628000,0.178400,-2.697300,9.468700,0.036300,0.549900,1.930400
1730864221518,17.091900,17.540500,1.084100,0.104100,-2.650600,9.378200,0.000600,0.539700,1.888500
1730864221528,18.759300,20.037800,1.614900,0.150200,-2.662600,9.185400,0.022300,0.542800,1.872600
1730864221538,19.708800,20.920100,2.071000,0.170600,-2.694300,9.153100,0.034700,0.549300,1.866000
1730864221548,20.800400,21.503200,2.497200,0.210100,-2.689600,9.233900,0.042800,0.548300,1.882500
1730864221557,21.794800,21.241600,2.631800,0.310100,-2.703900,9.350700,0.063200,0.551200,1.906300
1730864221567,22.931300,20.067700,2.557000,0.455000,-2.751200,9.405800,0.092700,0.560900,1.917600
1730864221577,24.217300,13.996500,2.287900,0.549600,-2.838600,9.431500,0.120900,0.599900,1.926300
1730864221587,26.781900,11.873100,2.003700,0.622100,-3.059000,9.439900,0.126800,0.623600,1.924500
1730864221597,28.075400,8.104800,1.757000,0.560400,-3.131400,9.425500,0.114200,0.638400,1.921600
1730864221607,29.338900,4.089800,1.577600,0.498100,-3.181700,9.419000,0.101500,0.648600,1.920200
1730864221617,30.722100,0.388700,1.308400,0.371200,-3.237400,9.346500,0.075600,0.660000,1.905500
1730864221627,31.866100,0.979400,1.323300,0.227500,-3.372700,9.176500,0.046300,0.687600,1.832700
1730864221637,32.688500,3.439300,2.474800,0.121500,-3.513400,8.989700,0.016800,0.738000,1.803700
1730864221647,32.628700,6.886100,3.349600,0.199900,-3.694300,8.715400,0.040700,0.753100,1.776800
1730864221657,32.441800,9.652500,4.097200,0.247800,-3.738000,8.647200,0.050500,0.762000,1.762900
1730864221667,32.367000,11.678700,4.702900,0.347800,-3.703800,8.646600,0.070900,0.755100,1.762800
1730864221677,32.277300,13.136700,4.830000,0.508300,-3.621800,8.661500,0.103600,0.738400,1.765800
1730864221687,32.225000,14.467600,5.106600,0.657400,-3.624200,8.686100,0.159100,0.743700,1.774600
1730864221697,33.413800,15.903100,4.822500,0.780700,-3.722400,8.867500,0.163500,0.758900,1.807800
1730864221707,34.400700,14.422700,4.089800,0.792700,-3.929600,9.118400,0.161600,0.801100,1.859000
1730864221717,34.647500,11.835700,3.304700,0.796300,-4.194200,9.297400,0.162300,0.855100,1.895500
1730864221727,33.974600,8.613200,2.504700,0.829200,-4.355900,9.333300,0.169000,0.888000,1.902800
1730864221737,33.249300,5.136500,1.996300,0.859200,-4.343300,9.231000,0.175100,0.885400,1.881900
1730864221747,32.277300,3.162600,2.018700,0.755600,-4.387000,8.971100,0.126200,0.892900,1.770800
1730864221757,30.759500,4.501000,2.385100,0.649000,-4.215200,8.487300,0.132300,0.859300,1.730300
1730864221767,30.333400,6.602000,2.863600,0.778900,-4.099000,8.362800,0.158800,0.835600,1.704900
1730864221777,29.914700,9.091700,3.200000,0.831600,-4.170900,8.334000,0.169500,0.850300,1.699000
1730864221787,29.466000,10.856300,3.200000,0.755600,-4.285800,8.366400,0.154000,0.873700,1.705600
1730864221797,29.174400,11.753500,2.788800,0.776500,-4.403200,8.478900,0.158300,0.928900,1.749800
1730864221807,27.858500,10.960900,1.368200,0.799300,-4.543900,8.583100,0.163300,0.945100,1.763900
1730864221817,27.469700,9.495500,0.583100,0.792700,-4.696600,8.678300,0.161600,0.957500,1.769200
1730864221827,27.073500,7.977700,0.119600,0.871700,-4.753500,8.632200,0.177700,0.969100,1.759800
1730864221837,26.497800,6.474900,0.448600,0.872300,-4.776200,8.534000,0.177800,0.973700,1.739800
1730864221847,25.944500,4.800100,0.747600,0.861000,-4.793600,8.401700,0.175500,0.977200,1.712800
1730864221857,25.383700,3.013100,0.919600,0.892100,-4.755900,8.292700,0.181000,0.985900,1.665400
1730864221867,23.940700,2.213100,0.680300,0.847800,-4.914500,8.072400,0.172800,-1.001900,1.645700
1730864221877,23.021000,2.624300,0.448600,0.824400,-4.946900,8.037000,0.168000,-1.008500,1.638500
1730864221887,22.236000,3.087900,0.089700,0.844800,-4.921700,8.036400,0.172200,-1.003400,1.638400
1730864221897,21.510700,3.132700,0.082200,0.864000,-4.907900,8.005900,0.176100,-1.000600,1.632200
1730864221907,21.121900,2.699100,0.074700,0.892100,-4.892400,8.014300,0.181800,0.997400,1.633900
1730864221916,21.563100,1.143900,0.358800,0.895700,-4.867200,8.012500,0.176800,0.998100,1.625800
1730864221927,22.871500,0.867300,0.613000,0.876500,-4.995400,7.935800,0.178700,-1.018400,1.617900
1730864221937,22.976200,1.256100,0.590600,0.920800,-5.091800,7.901100,0.187700,-1.038000,1.610800
1730864221946,22.736900,1.712100,0.553200,0.949000,-5.165400,7.943000,0.193400,-1.053100,1.619300
1730864221956,22.101400,2.048600,0.403700,0.949000,-5.176800,7.974200,0.193400,-1.055400,1.625700
1730864221966,21.241600,2.332700,0.104600,0.965700,-5.242000,7.982000,0.196800,-1.099900,1.637400
1730864221976,18.796600,4.022500,0.471000,0.923800,-5.381600,8.031600,0.187700,-1.124600,1.628500
1730864221985,16.882600,5.697300,0.702800,0.914200,-5.551000,7.958000,0.186400,-1.131700,1.622400
1730864221995,14.946100,7.185200,1.039200,0.913100,-5.537800,7.975400,0.186100,-1.129000,1.625900
1730864222006,12.785300,8.717900,1.360700,0.989100,-5.539000,7.949000,0.201600,-1.129200,1.620600
1730864222016,10.557200,10.355300,1.734600,0.999300,-5.585100,7.908300,0.203700,-1.138600,1.612300
1730864222026,7.940300,11.678700,2.168200,0.974700,-5.663000,7.934600,0.200900,-1.169100,1.643700
1730864222036,1.502800,11.746000,2.654200,1.008300,-5.771900,8.122100,0.205500,-1.176700,1.655800
1730864222046,-2.175700,10.609500,2.654200,0.977100,-5.766600,8.052600,0.199200,-1.175600,1.641700
1730864222056,-6.026300,9.854400,2.841100,0.951400,-5.722300,7.916100,0.193900,-1.166600,1.613800
1730864222066,-9.652500,10.205800,3.342100,0.841800,-5.686900,7.785600,0.171600,-1.159400,1.587200
1730864222076,-13.450700,11.648800,4.104700,0.786100,-5.697700,7.717900,0.160200,-1.161600,1.573400
1730864222086,-17.742400,17.607800,6.766500,0.835800,-5.660000,7.570000,0.196000,-1.119500,1.521400
1730864222096,-25.346300,20.022800,8.246900,1.018400,-5.266600,7.492200,0.207600,-1.073700,1.527400
1730864222106,-28.105300,21.436000,9.002000,1.059100,-5.148000,7.661000,0.215900,-1.049500,1.561800
1730864222116,-30.729600,22.722000,9.375900,1.190300,-5.132500,7.830500,0.242600,-1.046300,1.596400
1730864222126,-33.032500,23.222900,9.719800,1.360900,-5.130100,7.990900,0.277400,-1.045800,1.629100
1730864222136,-34.340900,22.093900,9.712300,1.453100,-5.115100,8.153800,0.296200,-1.024700,1.682400
1730864222146,-36.770900,19.140600,9.346000,1.473500,-5.026500,8.252600,0.315900,-1.012300,1.665600
1730864222156,-38.213900,19.619100,9.637600,1.605800,-4.902600,7.932300,0.327300,0.999500,1.617100
1730864222166,-39.320500,20.209800,9.839400,1.523800,-4.808600,7.829900,0.310600,0.980300,1.596300
1730864222176,-40.008300,20.822900,9.689900,1.465100,-4.760700,7.880200,0.298700,0.970500,1.606500
1730864222186,-40.576600,21.884600,9.428200,1.483700,-4.712700,7.965200,0.302400,0.960800,1.623900
1730864222196,-41.242000,22.886500,9.091700,1.512400,-4.690600,8.070600,0.320000,0.951000,1.662200
1730864222206,-42.580400,22.273400,8.209500,1.663300,-4.578600,8.181300,0.339100,0.933400,1.667900
1730864222216,-43.014000,20.905100,7.738400,1.829100,-4.428900,8.136400,0.372900,0.902900,1.658800
1730864222226,-42.146700,18.407800,7.274900,1.939300,-4.226000,8.075400,0.395300,0.861500,1.646300
1730864222236,-40.292500,14.422700,6.355200,1.926700,-4.067900,8.086700,0.392800,0.829300,1.648600
1730864222246,-38.326100,10.893700,5.368300,1.889600,-4.008000,8.128600,0.385200,0.817100,1.657200
1730864222256,-34.550300,8.254300,4.284200,1.865700,-4.123600,8.228600,0.377900,0.882600,1.668800
1730864222266,-34.812000,8.112300,4.299100,1.839900,-4.451700,8.116100,0.375100,0.907500,1.654600
1730864222276,-34.647500,8.239400,4.231800,1.854900,-4.425900,8.091500,0.378100,0.902300,1.649600
1730864222286,-34.782100,9.951600,4.538400,1.982400,-4.333100,8.110700,0.404100,0.883400,1.653500
1730864222296,-35.395200,13.196500,5.338400,2.057300,-4.283400,8.240600,0.419400,0.873200,1.680000
1730864222306,-36.225100,17.002200,6.153400,2.046500,-4.278100,8.477700,0.417200,0.875200,1.781400
1730864222316,-38.101800,23.551900,7.245000,2.060300,-4.293000,8.844200,0.441800,0.864200,1.803100
1730864222326,-39.126100,25.054700,7.469300,2.376400,-4.024800,8.792700,0.484400,0.820500,1.792600
1730864222336,-38.617700,24.875300,7.469300,2.505700,-3.761300,8.735200,0.510800,0.766800,1.780800
1730864222346,-36.838200,23.604200,7.043100,2.623700,-3.560700,8.715400,0.534900,0.725900,1.776800
1730864222355,-34.916600,22.550000,6.437500,2.678800,-3.530200,8.681900,0.546100,0.719700,1.770000
1730864222365,-32.995100,21.293900,5.839300,2.629700,-3.588900,8.684300,0.539400,0.736400,1.781700
1730864222375,-29.869800,17.884500,3.925300,2.705700,-3.617000,8.777100,0.551600,0.737400,1.789400
1730864222385,-28.531400,16.127400,3.476700,2.683000,-3.617000,8.768700,0.546900,0.737400,1.787700
1730864222395,-27.155700,14.542300,2.953300,2.613500,-3.563700,8.674700,0.532800,0.726500,1.768500
1730864222405,-26.153800,13.323600,2.474800,2.622500,-3.483500,8.641200,0.534600,0.710200,1.761700
1730864222415,-25.570600,12.837600,2.317800,2.689600,-3.462000,8.655000,0.548300,0.705800,1.764500
1730864222425,-25.503300,14.310600,2.048600,2.705700,-3.435000,8.655000,0.535700,0.704500,1.770700
1730864222435,-26.041700,15.252600,1.929000,2.571600,-3.488900,8.707600,0.524200,0.711300,1.775200
1730864222445,-26.714600,16.247100,1.742000,2.722500,-3.406300,8.634600,0.555000,0.694400,1.760300
1730864222455,-26.452900,15.574100,1.659800,2.795500,-3.289500,8.629800,0.569900,0.670600,1.759300
1730864222465,-25.428600,12.972200,1.308400,2.808100,-3.225400,8.676500,0.572500,0.657500,1.768900
1730864222474,-25.099600,10.497400,0.942000,2.834500,-3.235000,8.669900,0.577800,0.663800,1.741900
1730864222485,-26.146300,8.964600,0.957000,2.765600,-3.256000,8.465700,0.565600,0.658800,1.725900
1730864222495,-27.080900,10.153500,0.874700,2.845800,-3.150000,8.471700,0.580200,0.642200,1.727100
1730864222505,-27.746400,11.596500,0.583100,2.887700,-3.081700,8.552000,0.588700,0.628200,1.743500
1730864222515,-28.217400,13.196500,0.037300,2.857800,-3.038000,8.631000,0.582600,0.619300,1.759600
1730864222525,-28.224900,14.445100,0.717700,2.863200,-3.044600,8.640000,0.583700,0.620700,1.761400
1730864222535,-27.664100,14.407800,-3.364500,2.898500,-3.000900,8.657300,0.606500,0.599600,1.774200
1730864222545,-27.372500,13.772200,-2.975700,3.015900,-2.909900,8.686700,0.614800,0.593200,1.770900
1730864222555,-27.230500,13.495600,-3.790700,2.971000,-2.794900,8.802200,0.605700,0.569800,1.794500
1730864222565,-26.572500,13.839500,-4.478600,3.053000,-2.829100,8.794500,0.622400,0.576700,1.792900
1730864222575,-25.772500,13.555400,-5.248700,3.142800,-2.924300,8.613600,0.640700,0.596100,1.756100
1730864222585,-25.316400,11.327300,-6.138400,3.172800,-2.845200,8.465100,0.646800,0.580000,1.725800
1730864222595,-23.036000,7.402000,-8.067400,3.246400,-2.786000,8.422000,0.649100,0.570500,1.718700
1730864222605,-24.232300,6.138400,-9.301100,3.084100,-2.838000,8.395100,0.628700,0.578600,1.711500
1730864222615,-24.052800,5.211300,-10.325400,3.039200,-2.917700,8.408300,0.619600,0.594800,1.714200
1730864222625,-24.703300,4.553300,-11.155300,3.051200,-2.822500,8.491500,0.622000,0.575400,1.731200
1730864222635,-25.391200,3.708400,-12.202100,3.032600,-2.730900,8.604100,0.618200,0.556700,1.754100
1730864222645,-26.026700,2.773800,-13.645100,3.115300,-2.660200,8.742400,0.625200,0.548900,1.796900
1730864222655,-26.318300,2.975700,-14.781600,3.066800,-2.692600,8.795100,0.617400,0.539300,1.793000
1730864222665,-27.066000,4.575800,-14.804000,3.074000,-2.627900,8.728600,0.626700,0.535700,1.779500
1730864222674,-28.314600,6.086100,-14.751700,3.177500,-2.629100,8.618400,0.647800,0.536000,1.757000
1730864222684,-29.368800,6.235600,-14.976000,3.216500,-2.699700,8.571700,0.655700,0.550400,1.747500
1730864222695,-30.206200,4.822500,-15.417100,3.142800,-2.721900,8.585500,0.640700,0.554900,1.750300
1730864222705,-30.826800,2.721500,-15.933000,3.118300,-2.629700,8.608800,0.640900,0.512900,1.755300
1730864222715,-31.626800,0.321500,-16.650800,3.112900,-2.532100,8.622600,0.634600,0.516200,1.757900
1730864222725,-32.494200,1.921500,-16.979800,2.974000,-2.458400,8.608200,0.606300,0.501200,1.755000
1730864222735,-33.406300,5.271100,-17.338700,2.926700,-2.367400,8.590900,0.596600,0.482600,1.751400
1730864222745,-34.318500,9.017000,-17.406000,2.951800,-2.438700,8.519000,0.601800,0.497100,1.736800
1730864222755,-35.843800,13.002100,-17.069500,2.941600,-2.451900,8.426200,0.599700,0.499800,1.717800
1730864222775,-42.415900,22.714500,-15.768500,3.267400,-2.065700,8.706400,0.666100,0.421100,1.775000
1730864222794,-42.587800,20.374200,-16.291900,3.284100,-1.974000,8.759700,0.669500,0.402400,1.785800
1730864222814,-39.656900,14.990900,-16.890100,3.414100,-1.934500,8.710600,0.686000,0.381800,1.785700
1730864222834,-38.326100,10.863800,-19.275200,3.288300,-1.850700,8.890300,0.670400,0.377300,1.812500
1730864222854,-39.058800,14.041400,-21.772400,3.112300,-1.746500,8.751900,0.634500,0.356000,1.784300
1730864222874,-39.455100,21.256500,-24.329500,3.171600,-1.607000,8.744800,0.657100,0.332800,1.780000
1730864222894,-41.249500,27.888400,-25.989300,3.784100,-1.434000,8.704600,0.771400,0.292300,1.774600
1730864222914,-40.277500,21.264000,-27.656700,4.188800,-1.196900,8.901600,0.854000,0.244000,1.814800
1730864222934,-34.856800,6.340300,-31.410000,4.241500,-1.097500,9.016600,0.841100,0.241200,1.850000
1730864222944,-33.219400,1.495300,-31.903500,3.843400,-1.295700,8.984300,0.783500,0.264100,1.831600
1730864222954,-32.292300,-1.839200,-32.060500,3.481700,-1.389700,8.797500,0.709800,0.283300,1.793500
1730864222974,-32.808200,-3.147700,-33.496000,3.078100,-1.246000,8.571100,0.627500,0.254000,1.747400
1730864222994,-36.344700,0.919600,-36.598900,3.120700,0.829200,8.580100,0.633500,0.169000,1.749200
1730864223004,-37.361600,2.616800,-37.959700,3.260800,0.844800,8.740600,0.664700,0.172200,1.781900
1730864223014,-38.004600,4.172000,-39.567200,3.244000,0.968700,8.820200,0.661300,0.197500,1.798200
1730864223024,-38.632600,5.233700,-41.219600,3.323600,0.864000,8.841800,0.677600,0.176100,1.802600
1730864223034,-38.527900,6.145900,-41.982200,3.260800,0.881900,8.855500,0.664700,0.179800,1.805400
1730864223044,-38.311100,7.207600,-42.423400,3.217100,0.826800,8.801600,0.670400,0.135000,1.775200
1730864223054,-37.144700,6.564600,-43.739300,3.544000,0.617300,8.636400,0.722500,0.125800,1.760700
1730864223064,-35.694200,3.394400,-45.429000,3.632000,0.652600,8.631600,0.740400,0.133000,1.759700
1730864223074,-33.974600,0.687800,-46.303800,3.494900,0.737000,8.663300,0.712500,0.150200,1.766200
1730864223084,-32.277300,0.493400,-46.543100,3.499700,0.767600,8.656700,0.713500,0.156400,1.764800
1730864223093,-31.477300,0.441100,-45.967400,3.605700,0.782500,8.721400,0.735100,0.159500,1.809300
1730864223103,-31.537100,0.246700,-42.864500,3.566100,0.802900,8.805800,0.697000,0.156600,1.802900
1730864223113,-32.225000,1.674800,-41.847600,3.283500,0.784900,8.750200,0.669400,0.160000,1.783900
1730864223123,-32.299800,4.351500,-40.494300,3.261400,0.739400,8.679500,0.664900,0.150700,1.769500
1730864223133,-31.888500,6.908500,-38.894300,3.301500,0.825000,8.750200,0.673000,0.168200,1.783900
1730864223143,-31.970800,8.366500,-37.832600,3.453000,0.718500,8.918400,0.703900,0.146400,1.818200
1730864223153,-32.486700,8.486100,-37.144700,3.899000,0.535800,9.199200,0.904600,0.082000,1.933800
1730864223163,-32.987600,4.276700,-37.436300,4.437300,0.368800,9.530300,0.933400,0.075100,1.942900
1730864223173,-32.352100,1.450500,-37.129800,4.439700,0.417300,9.322600,0.905100,0.085000,1.900600
1730864223183,-31.215600,-1.517700,-37.473700,3.946300,0.480200,9.174100,0.804500,0.097900,1.870300
1730864223193,-29.451100,-3.506600,-37.585900,3.482900,0.540000,9.071700,0.710000,0.110100,1.849400
1730864223203,-27.776300,-4.104700,-37.339100,3.347600,0.394500,8.968700,0.682400,0.080400,1.828400
1730864223214,-26.759400,-4.119700,-36.942900,3.541000,0.249600,8.934000,0.749300,0.025100,1.778600
1730864223223,-26.071600,-9.256200,-37.570900,3.684700,0.298700,8.559200,0.751200,0.060900,1.744900
1730864223233,-26.041700,-11.005800,-37.481200,3.563100,0.514900,8.471100,0.726400,0.104900,1.727000
1730864223253,-24.307000,-8.045000,-34.512900,3.493100,0.600500,8.984900,0.712100,0.122400,1.831700
1730864223263,-22.736900,-7.327200,-32.987600,3.695500,0.652000,9.341100,0.753400,0.132900,1.966900
1730864223273,-18.198500,-9.861900,-29.623100,3.847500,0.652600,9.617200,0.797200,0.110800,1.983100
1730864223283,-16.097500,-13.084400,-28.920200,3.999600,0.570000,9.721300,0.815400,0.116200,1.981900
1730864223303,-13.286200,-19.521900,-27.955700,3.891900,0.374200,9.280700,0.793400,0.076200,1.892000
1730864223323,-10.661900,-27.492200,-30.512800,3.189500,0.295700,8.658500,0.664500,0.016200,1.750800
1730864223343,-13.413300,-27.245400,-35.701700,2.840400,0.048400,8.671100,0.579100,0.009800,1.767800
1730864223363,-23.933200,-17.450800,-36.531600,2.350100,0.077800,8.821400,0.479100,0.015800,1.798400
1730864223383,-31.806300,-10.781500,-42.064500,2.802100,0.000000,8.842400,0.617300,0.008300,1.791000
1730864223403,-33.144600,-10.624500,-42.251400,2.808700,0.180800,8.820800,0.572600,0.036800,1.798300
1730864223423,-34.430600,-8.366500,-44.464500,2.793700,0.234100,8.783100,0.569500,0.047700,1.790600
1730864223433,-35.305400,-6.093500,-45.705700,2.906900,0.474200,8.775900,0.592600,0.096600,1.793200
1730864223443,-35.088600,-2.228000,-45.548700,2.972200,0.641200,8.795700,0.570800,0.109900,1.792300
1730864223453,-34.640000,-1.278500,-45.002800,2.640500,0.424500,8.874700,0.538300,0.086500,1.809300
1730864223463,-34.475500,0.149500,-43.716800,2.602700,0.376000,9.026800,0.530600,0.076600,1.840300
1730864223472,-34.497900,1.876600,-42.086900,2.504500,0.216100,9.134600,0.510600,0.044000,1.862300
1730864223482,-34.385800,3.439300,-40.741100,2.539300,0.171200,9.152500,0.517700,0.034900,1.865900
1730864223492,-33.944700,4.859900,-39.380300,2.842800,0.085600,9.070500,0.648400,0.045600,1.849400
1730864223502,-30.856700,2.908400,-35.813900,3.002100,0.075400,8.948900,0.612000,0.015300,1.824400
1730864223512,-30.266100,0.792500,-35.140900,2.655400,0.481300,8.749600,0.541300,0.098100,1.783800
1730864223522,-30.699700,0.762600,-36.561500,2.887100,0.496900,8.643600,0.588600,0.101300,1.762200
1730864223532,-32.105400,3.880400,-36.464300,2.774600,0.510100,8.920800,0.565600,0.104000,1.818700
1730864223542,-34.445600,7.439400,-35.933500,2.535700,0.229300,8.919000,0.516900,0.046700,1.818300
1730864223552,-36.726000,17.989100,-40.285000,2.710500,0.182000,8.831600,0.647400,0.103700,1.799800
1730864223562,-36.337200,20.897600,-44.210300,3.439200,0.589700,8.940600,0.701100,0.120200,1.822700
1730864223572,-35.469900,22.789300,-47.163600,3.685900,0.419100,8.989700,0.751400,0.085400,1.832700
1730864223582,-35.806400,22.288300,-48.404800,3.477500,0.240100,8.884300,0.708900,0.048900,1.811200
1730864223592,-36.770900,20.456500,-48.666500,3.254200,0.207100,8.720800,0.663400,0.042200,1.777900
1730864223602,-38.557800,18.744300,-47.814100,3.321200,0.387300,8.446600,0.677100,0.078900,1.697200
1730864223612,-41.817700,15.364800,-45.511300,3.415800,0.331100,8.325000,0.671800,0.062500,1.714700
1730864223622,-43.014000,14.766600,-45.264500,3.138000,0.320300,8.525600,0.639700,0.065300,1.738100
1730864223632,-43.746700,16.456400,-46.079500,2.966800,0.353200,8.654400,0.604800,0.072000,1.764400
1730864223642,-44.599100,19.611600,-47.029100,2.955400,0.249600,8.820200,0.602500,0.050900,1.798200
1730864223652,-45.698200,23.634100,-48.128200,3.082900,0.135300,9.082500,0.628500,0.027500,1.851600
1730864223662,-46.490700,27.282800,-49.189900,3.117700,0.135300,9.139300,0.628600,0.073800,1.870200
1730864223672,-46.273900,31.634300,-48.539400,3.282300,0.636400,9.144700,0.669100,0.129700,1.864300
1730864223682,-44.763600,31.417500,-47.373000,3.833800,0.744800,9.086700,0.781600,0.151800,1.852500
1730864223692,-42.341100,28.770700,-45.728100,4.426500,0.700500,9.083700,0.902400,0.142800,1.851900
1730864223702,-39.799000,22.983700,-43.492500,4.697200,0.652600,9.128600,0.957600,0.133000,1.861000
1730864223712,-37.167200,16.037700,-41.070000,4.535500,0.827400,9.174100,0.924600,0.168700,1.870300
1730864223722,-34.722200,8.179600,-37.855000,4.221200,0.894500,9.220200,0.795000,0.161300,1.900600
1730864223732,-30.699700,7.775800,-37.870000,3.727200,0.586700,9.301000,0.759800,0.119600,1.896200
1730864223742,-28.793100,7.835600,-37.526000,3.562500,0.611300,9.125600,0.726300,0.124600,1.860400
1730864223752,-26.819300,7.544000,-36.651300,3.546400,0.849000,9.028600,0.723000,0.173000,1.840600
1730864223762,-24.912700,6.818800,-35.440000,3.600300,1.011200,8.955500,0.734000,0.206100,1.825800
1730864223772,-23.596800,6.250600,-33.727800,3.680500,1.005300,8.871100,0.750300,0.188400,1.797800
1730864223782,-23.686500,5.742100,-30.796900,3.781700,0.924400,8.665100,0.782500,0.189500,1.776300
1730864223792,-24.381800,5.405700,-30.550200,3.767900,0.976500,8.553200,0.768100,0.199000,1.743700
1730864223802,-24.778100,5.368300,-30.737100,3.836800,0.948400,8.523800,0.782200,0.193300,1.737700
1730864223812,-25.151900,5.383300,-30.729600,3.882300,0.995700,8.558600,0.791500,0.203000,1.744800
1730864223822,-25.862200,5.144000,-30.864200,3.887100,1.034600,8.660300,0.792400,0.210900,1.765600
1730864223832,-26.475300,5.151500,-31.155800,4.093000,0.961600,8.707600,0.875300,0.184600,1.794900
1730864223842,-24.912700,1.420500,-29.959500,4.385800,0.864000,8.974700,0.894100,0.176100,1.829700
1730864223852,-22.826600,-2.811200,-28.082800,4.428900,0.941200,9.071700,0.902900,0.191800,1.849400
1730864223862,-20.112600,-7.469300,-25.750100,4.279900,1.193300,9.121400,0.872500,0.243200,1.859600
1730864223872,-17.518100,-11.237600,-23.708900,4.003800,1.244800,9.068100,0.816200,0.253700,1.848700
1730864223892,-11.551600,-12.239500,-21.660300,3.634400,0.921400,8.832200,0.735800,0.150600,1.768600
1730864223910,-12.082500,-9.570300,-21.174300,3.696100,0.692700,8.380700,0.753500,0.141200,1.708600
1730864223920,-11.656300,-7.828200,-20.725700,3.578700,0.664000,8.453200,0.729600,0.135300,1.723300
1730864223930,-11.888100,-6.116000,-21.032200,3.618200,0.813100,8.485500,0.737600,0.165700,1.729900
1730864223941,-12.673100,-3.925300,-20.837800,3.792500,0.861000,8.454400,0.835600,0.184900,1.716300
1730864223951,-14.848900,-1.151400,-19.065800,4.022400,0.907100,8.429800,0.847600,0.220300,1.718600
1730864223961,-15.686300,-1.084100,-19.065800,4.121200,1.110600,8.547200,0.840200,0.226400,1.742500
1730864223971,-15.716200,0.942000,-20.366800,3.658900,1.069900,8.546000,0.745900,0.218100,1.742300
1730864223981,-15.626500,0.500900,-23.327600,3.826000,1.035200,8.643600,0.780000,0.211000,1.762200
1730864223991,-16.478800,0.306500,-26.609900,3.745200,0.962100,8.758500,0.763500,0.196100,1.785600
1730864224001,-16.890100,-2.998100,-26.871600,3.622400,0.884300,8.495100,0.734800,0.205800,1.674900
1730864224011,-13.570400,3.633700,-24.553800,3.481100,0.921400,8.279500,0.709700,0.187800,1.687900
1730864224021,-11.962800,6.287900,-21.428500,3.354200,0.711900,8.579500,0.683800,0.145100,1.749100
1730864224031,-11.731100,6.153400,-19.671400,3.697300,0.899900,8.581900,0.753700,0.183400,1.749600
1730864224041,-11.529200,6.407600,-17.914400,3.887100,1.019000,8.609400,0.792400,0.207700,1.755200
1730864224051,-10.946000,5.600100,-16.949900,3.937400,1.195700,8.572300,0.802700,0.243700,1.747600
1730864224061,-8.254300,4.501000,-16.224600,3.845200,1.227400,8.583100,0.775800,0.237600,1.737900
1730864224071,-8.762800,3.753300,-14.893700,4.018200,1.118400,8.537600,0.819200,0.228000,1.740600
1730864224081,-8.516000,1.779400,-12.336700,3.994200,1.131000,8.678900,0.814300,0.230500,1.769400
1730864224091,-7.738400,0.224300,-9.899200,3.901400,1.283100,8.989100,0.795400,0.261500,1.832600
1730864224101,-5.652400,-1.487800,-7.506700,3.714000,1.250200,9.136900,0.757200,0.254800,1.862700
1730864224111,-2.915900,-2.893500,-4.919700,3.515800,1.168700,9.161500,0.706500,0.199300,1.828800
1730864224121,1.764500,-3.394400,0.471000,3.465500,0.824400,8.689700,0.707600,0.179800,1.771600
1730864224131,2.325200,-2.130800,0.560700,3.432600,0.818400,8.472900,0.699800,0.166800,1.727400
1730864224140,1.697200,0.059800,1.218700,3.573300,0.757400,8.367000,0.728500,0.154400,1.705800
1730864224150,0.276600,1.801900,1.674800,3.797900,0.657400,8.410100,0.774200,0.134000,1.714500
1730864224161,-1.308400,2.848600,2.220600,4.002600,0.700500,8.463900,0.816000,0.142800,1.725500
1730864224170,-2.915900,3.379500,0.366300,4.122400,0.818400,8.480100,0.878000,0.191700,1.723900
1730864224180,-5.809400,4.119700,1.166300,4.443900,0.989100,8.482500,0.906000,0.201600,1.729300
1730864224190,-7.117900,3.319700,0.657900,4.457100,0.989100,8.528000,0.908600,0.201600,1.738600
1730864224200,-8.164600,2.063500,0.463500,4.374500,0.996900,8.625600,0.891800,0.203200,1.758500
1730864224210,-8.560900,1.300900,0.553200,4.375100,1.065100,8.838200,0.891900,0.217100,1.801800
1730864224220,-8.314200,0.598100,0.904600,4.293600,1.053200,8.957900,0.875300,0.214700,1.826200
1730864224230,-6.519700,-1.091600,2.631800,4.212200,1.080100,8.941800,0.851900,0.210800,1.816700
1730864224240,-5.577600,-2.280400,3.603800,4.083500,0.996900,8.829800,0.832500,0.203200,1.800100
1730864224250,-5.099100,-2.818700,4.127100,3.932600,0.977100,8.698100,0.801700,0.199200,1.773300
1730864224260,-4.471100,-2.467300,4.381400,3.788900,0.911900,8.584900,0.772400,0.185900,1.750200
1730864224270,-4.381400,-1.674800,4.358900,3.826600,0.889100,8.535200,0.780100,0.181200,1.740100
1730864224280,-4.673000,0.807400,4.471100,3.875700,0.915400,8.568700,0.798800,0.196100,1.756100
1730864224290,-5.577600,0.112100,5.293500,3.918200,0.962100,8.717200,0.810700,0.200600,1.777200
1730864224300,-5.652400,0.186900,6.145900,4.039200,0.995100,8.801000,0.823400,0.202800,1.794300
1730864224310,-5.233700,0.702800,7.215100,4.132000,0.984300,8.830400,0.842400,0.200600,1.800200
1730864224320,-4.605700,-1.375700,7.985200,4.160700,0.989700,8.764500,0.848200,0.201700,1.786800
1730864224330,-3.947700,-1.914000,8.112300,4.166700,1.028600,8.636400,0.849400,0.209700,1.760700
1730864224340,-3.469200,-2.011200,7.073000,4.208600,1.066900,8.607700,0.851500,0.210900,1.769000
1730864224350,-2.811200,-2.714000,6.467400,4.020600,0.986100,8.728600,0.819700,0.201000,1.779500
1730864224360,-2.302800,-2.721500,6.153400,3.866700,0.955600,8.810000,0.788300,0.194800,1.796100
1730864224370,-1.727100,-2.183200,6.026300,3.827800,0.898100,8.843000,0.780300,0.183100,1.802800
1730864224380,0.889700,-1.525200,5.966400,3.471500,0.638800,8.833400,0.707700,0.130200,1.800900
1730864224390,0.186900,0.306500,5.248700,4.045700,1.169900,8.713600,0.824800,0.238500,1.807700
1730864224400,0.687800,0.807400,7.805700,4.118800,1.008900,8.774100,0.799900,0.206600,1.759600
1730864224410,0.755100,0.381300,7.865600,3.989500,1.124400,8.602900,0.813300,0.229200,1.753900
1730864224420,0.785000,0.314000,7.850600,4.108000,1.122000,8.671100,0.837500,0.228700,1.767800
1730864224430,0.441100,-2.706600,8.202000,4.272700,1.084900,8.558000,0.871000,0.221100,1.744700
1730864224440,0.672900,-5.129000,9.495500,4.023000,1.098100,8.679500,0.820100,0.223800,1.769500
1730864224450,1.764500,-5.697300,9.682400,3.948100,1.167500,8.674700,0.827100,0.225300,1.794100
1730864224460,2.788800,-6.998200,10.781500,4.057100,0.956200,8.749000,0.802900,0.194900,1.783600
1730864224470,2.646700,-10.983400,11.865600,4.043300,1.154300,9.009400,0.824300,0.235300,1.836700
1730864224480,2.160700,-19.753700,13.076900,3.536200,0.782500,8.572300,0.720900,0.159500,1.747600
1730864224490,3.820600,-18.258300,15.207800,3.341000,0.831000,8.637600,0.681100,0.169400,1.760900
1730864224500,3.372000,-13.076900,14.990900,3.609800,0.885500,8.495700,0.735900,0.180500,1.732000
1730864224510,2.998100,-8.882400,14.572200,3.886500,0.894500,8.569900,0.828300,0.217400,1.738000
1730864224520,1.712100,-8.314200,14.318000,4.038000,1.131600,8.523200,0.823200,0.230700,1.737600
1730864224530,1.704700,-8.792700,13.428300,3.902600,1.062700,8.613600,0.795600,0.216600,1.756100
1730864224540,1.196200,-8.486100,12.314300,3.791300,1.050800,8.617800,0.772900,0.214200,1.756900
1730864224550,0.613000,-7.992700,11.499300,3.791900,0.924400,8.576500,0.773000,0.188400,1.748500
1730864224560,0.396200,-8.269300,11.058100,3.778700,0.793300,8.594500,0.770300,0.161700,1.752100
1730864224569,0.583100,-9.966500,10.579600,3.742200,0.884300,8.681300,0.755100,0.192900,1.777200
1730864224579,0.366300,-9.832000,10.003900,3.622400,1.007100,8.796900,0.738500,0.205300,1.793400
1730864224589,0.500900,-8.889900,9.338500,3.581700,1.008300,8.831000,0.730200,0.205500,1.800400
1730864224599,1.794400,-7.745900,9.054400,3.551800,0.959800,8.844200,0.724100,0.195600,1.803100
1730864224609,3.058000,-7.327200,9.106700,3.541000,0.920200,8.758500,0.721900,0.187600,1.785600
1730864224619,4.680400,-7.095400,9.443200,3.456600,0.943600,8.699900,0.691700,0.192700,1.760400
1730864224629,6.706600,-6.101000,9.532900,3.239800,0.980100,8.623200,0.682800,0.199800,1.758000
1730864224639,7.192600,-4.904700,9.473100,3.451800,0.999300,8.677100,0.703700,0.203700,1.769000
1730864224649,7.402000,-3.977600,9.660000,3.517600,0.991500,8.732200,0.717100,0.202100,1.780200
1730864224659,7.364600,-3.663600,10.101100,3.541600,0.968700,8.739400,0.722000,0.197500,1.781700
1730864224669,7.297300,-3.962700,10.646900,3.510400,0.932200,8.728600,0.715600,0.190000,1.779500
1730864224679,7.259900,-3.985100,11.604000,3.445800,0.866900,8.755500,0.698400,0.167700,1.794300
1730864224689,7.431900,-3.155200,11.985300,3.413500,0.783100,8.873500,0.695900,0.159600,1.809000
1730864224700,7.102900,-2.422400,12.329200,3.415200,0.819000,8.878300,0.696200,0.166900,1.810000
1730864224709,6.407600,-1.450500,12.448800,3.434400,0.849600,8.820800,0.700100,0.173200,1.798300
1730864224719,5.615000,0.665400,12.321700,3.508100,0.874100,8.769300,0.715200,0.178200,1.787800
1730864224728,5.129000,0.785000,12.306800,3.527200,0.870500,8.772300,0.719100,0.177400,1.788400
1730864224739,3.940200,0.800000,12.553500,3.452400,0.913100,8.744800,0.687700,0.178300,1.781900
1730864224749,3.536500,0.538300,12.306800,3.331400,0.883700,8.750800,0.679100,0.180100,1.784000
1730864224759,2.983200,0.171900,12.075000,3.330200,0.890300,8.711800,0.678900,0.181500,1.776100
1730864224769,2.504700,0.605600,11.962800,3.507500,0.836400,8.648400,0.715000,0.170500,1.763100
1730864224779,1.719600,0.590600,12.097400,3.619400,0.775300,8.661500,0.737900,0.158000,1.765800
1730864224789,0.829900,-2.527100,12.673100,3.527800,0.859800,8.740600,0.704400,0.197100,1.807100
1730864224799,0.456000,-6.796400,13.428300,3.455400,0.710700,8.716000,0.699900,0.144800,1.776900
