timestamp,Gyro_x,Gyro_y,Gyro_z,Accel_x,Accel_y,Accel_z,Mag_x,Mag_y,Mag_z
1730864339656,-4.605700,0.882200,-1.742000,0.243000,0.171800,9.663900,0.049500,0.035000,1.970200
1730864339666,-4.613100,0.867300,-1.742000,0.238900,0.175400,9.651300,0.048700,0.035700,1.967600
1730864339676,-4.583200,0.912100,-1.772000,0.256800,0.184400,9.655500,0.049100,0.037800,1.967800
1730864339686,-4.695400,0.986900,-1.712100,0.241200,0.180800,9.648300,0.050100,0.036800,1.967000
1730864339696,-4.560800,0.986900,-1.764500,0.247800,0.176000,9.662700,0.050500,0.035800,1.969900
1730864339706,-4.530900,0.942000,-1.742000,0.240600,0.180200,9.664500,0.049000,0.036700,1.970300
1730864339714,-4.643000,0.904600,-1.816800,0.235300,0.182600,9.652500,0.047900,0.037200,1.967800
1730864339724,-4.575800,0.904600,-1.742000,0.230500,0.191000,9.654300,0.046900,0.038900,1.968200
1730864339735,-4.770200,0.927100,-1.667300,0.241200,0.175400,9.655500,0.048800,0.037100,1.968100
1730864339745,-4.403800,0.904600,-1.682200,0.246600,0.180200,9.650700,0.050200,0.036700,1.967500
1730864339755,-4.478600,0.964500,-1.697200,0.247800,0.186200,9.672200,0.050500,0.037900,1.971900
1730864339765,-4.486000,0.897200,-1.689700,0.244200,0.183800,9.678200,0.049800,0.037400,1.973100
1730864339775,-4.478600,0.904600,-1.704700,0.241800,0.179600,9.662100,0.049300,0.036600,1.969800
1730864339786,-4.433700,0.889700,-1.644800,0.253200,0.186200,9.651300,0.051600,0.037900,1.972200
1730864339795,-4.448600,0.837400,-1.704700,0.236500,0.179000,9.674000,0.049100,0.037300,1.968700
1730864339805,-4.471100,0.979400,-1.734600,0.246600,0.191000,9.670400,0.050200,0.038900,1.971500
1730864339815,-4.463600,0.971900,-1.719600,0.244800,0.180800,9.671000,0.049900,0.036800,1.971600
1730864339825,-4.381400,0.934600,-1.712100,0.235900,0.184400,9.656700,0.048000,0.037500,1.968700
1730864339835,-4.441200,0.912100,-1.734600,0.251400,0.186200,9.662700,0.051200,0.037900,1.969900
1730864339845,-4.598200,0.971900,-1.801900,0.243000,0.178400,9.660900,0.048400,0.036700,1.970300
1730864339855,-4.725300,-1.061700,-1.764500,0.237700,0.180200,9.659700,0.050900,0.036700,1.969300
1730864339865,-4.747700,0.874700,-1.809300,0.241800,0.183200,9.666800,0.049300,0.037300,1.970800
1730864339875,-4.620600,0.814900,-1.704700,0.231700,0.185600,9.650700,0.047200,0.037800,1.967500
1730864339885,-4.635600,0.957000,-1.794400,0.247800,0.181400,9.650100,0.050500,0.036900,1.967400
1730864339895,-4.613100,-1.009300,-1.712100,0.251400,0.187400,9.680000,0.051200,0.038200,1.973500
1730864339905,-4.702900,0.942000,-1.794400,0.240100,0.189800,9.671000,0.049500,0.035800,1.968700
1730864339915,-4.747700,0.882200,-1.764500,0.249600,0.177200,9.642300,0.050900,0.036100,1.965800
1730864339925,-4.575800,0.829900,-1.824300,0.242400,0.173000,9.646500,0.049400,0.035200,1.966600
1730864339935,-4.590700,0.844800,-1.831800,0.240100,0.179600,9.668600,0.048900,0.036600,1.971100
1730864339945,-4.598200,0.986900,-1.772000,0.242400,0.182600,9.680600,0.049400,0.037200,1.973600
1730864339955,-4.613100,-1.001800,-1.786900,0.237100,0.185000,9.678200,0.048300,0.037700,1.967000
1730864339965,-4.650500,0.994400,-1.652300,0.243600,0.184400,9.648300,0.049400,0.036800,1.966400
1730864339975,-4.770200,0.979400,-1.727100,0.243000,0.181400,9.653700,0.049500,0.036900,1.968100
1730864339985,-4.635600,0.942000,-1.697200,0.249600,0.179600,9.663900,0.050900,0.036600,1.970200
1730864339995,-4.717800,0.971900,-1.727100,0.242400,0.182600,9.666200,0.049400,0.037200,1.970700
1730864340005,-4.702900,0.942000,-1.801900,0.239500,0.185000,9.656700,0.048800,0.037700,1.968700
1730864340015,-4.695400,0.927100,-1.794400,0.247800,0.185000,9.650700,0.047400,0.037300,1.968700
1730864340025,-4.433700,0.867300,-1.764500,0.232900,0.182600,9.660900,0.051700,0.037200,1.969600
1730864340035,-4.486000,0.882200,-1.712100,0.249000,0.171200,9.678200,0.050700,0.034900,1.973100
1730864340044,-4.628100,0.882200,-1.719600,0.239500,0.174800,9.655500,0.048800,0.035600,1.968500
1730864340054,-4.598200,0.986900,-1.689700,0.247200,0.197500,9.630900,0.050400,0.040200,1.963500
1730864340064,-4.523400,0.957000,-1.727100,0.243600,0.182000,9.657900,0.049600,0.037100,1.968900
1730864340074,-4.553300,0.949500,-1.704700,0.244800,0.186200,9.654300,0.050600,0.036700,1.972500
1730864340084,-4.628100,0.942000,-1.764500,0.239500,0.178400,9.656100,0.048800,0.036300,1.968600
1730864340094,-4.568300,0.949500,-1.719600,0.239500,0.176600,9.650700,0.048800,0.036000,1.967500
1730864340103,-4.583200,0.986900,-1.727100,0.235300,0.177800,9.654300,0.047900,0.036200,1.968200
1730864340113,-4.605700,0.979400,-1.779400,0.245400,0.185000,9.660300,0.050000,0.037700,1.969400
1730864340124,-4.560800,0.859800,-1.727100,0.243000,0.185600,9.664500,0.049500,0.037800,1.970300
1730864340134,-4.650500,0.979400,-1.749500,0.239500,0.182600,9.666800,0.049400,0.035000,1.967700
1730864340144,-4.702900,-1.039200,-1.772000,0.247200,0.182000,9.647100,0.050400,0.037100,1.966700
1730864340154,-4.605700,-1.031700,-1.757000,0.244800,0.178400,9.669800,0.049900,0.036300,1.971400
1730864340164,-4.598200,0.927100,-1.719600,0.237700,0.180200,9.669200,0.048400,0.036700,1.971300
1730864340174,-4.650500,0.971900,-1.749500,0.243000,0.182000,9.660900,0.049500,0.037100,1.969600
1730864340184,-4.575800,0.971900,-1.742000,0.245400,0.186200,9.686000,0.050700,0.037400,1.971100
1730864340194,-4.605700,0.964500,-1.727100,0.249000,0.180200,9.669200,0.053100,0.036700,1.971300
1730864340204,-4.553300,0.934600,-1.749500,0.246600,0.184400,9.665100,0.050200,0.037500,1.970400
1730864340214,-4.583200,0.927100,-1.749500,0.243600,0.176600,9.666800,0.049600,0.036000,1.970800
1730864340224,-4.545800,0.934600,-1.764500,0.259200,0.182600,9.660300,0.052800,0.037200,1.969400
1730864340234,-4.590700,-1.009300,-1.786900,0.241800,0.179000,9.662100,0.049300,0.036400,1.969800
1730864340244,-4.635600,0.912100,-1.742000,0.238300,0.179600,9.650700,0.047200,0.036800,1.971600
1730864340254,-4.613100,0.912100,-1.644800,0.244200,0.178400,9.672200,0.049800,0.036300,1.971900
1730864340264,-4.501000,0.897200,-1.659800,0.235300,0.183200,9.676400,0.047900,0.037300,1.972700
1730864340274,-4.418700,0.859800,-1.697200,0.240600,0.179600,9.671600,0.049000,0.036600,1.971800
1730864340284,-4.396300,0.912100,-1.592500,0.247200,0.177200,9.685400,0.050400,0.036100,1.974600
1730864340294,-4.411300,0.852300,-1.517700,0.246600,0.183800,9.662100,0.050200,0.037400,1.969800
1730864340304,-4.530900,0.882200,-1.809300,0.244800,0.183200,9.669800,0.050700,0.038800,1.973600
1730864340314,-4.687900,0.859800,-1.704700,0.239500,0.186200,9.662700,0.048800,0.037900,1.969900
1730864340324,-4.448600,0.837400,-1.644800,0.232900,0.184400,9.658500,0.047400,0.037500,1.969100
1730864340334,-4.583200,0.792500,-1.719600,0.233500,0.187400,9.681200,0.047600,0.038200,1.973700
1730864340344,-4.613100,0.814900,-1.659800,0.246000,0.180200,9.686600,0.050100,0.036700,1.974800
1730864340354,-4.665500,0.785000,-1.704700,0.256200,0.179600,9.666800,0.051800,0.037800,1.971800
1730864340364,-4.680400,0.777500,-1.742000,0.254400,0.176000,9.676400,0.051800,0.035800,1.972700
1730864340373,-4.575800,0.643000,-1.622400,0.248400,0.167000,9.677000,0.050600,0.034000,1.972900
1730864340383,-4.545800,0.680300,-1.607500,0.249000,0.170600,9.672800,0.050700,0.034700,1.972000
1730864340393,-4.643000,0.628000,-1.712100,0.266400,0.180800,9.695000,0.054300,0.036800,1.976500
1730864340402,-4.717800,0.605600,-1.674800,0.226300,0.203500,9.660900,0.046100,0.041500,1.969600
1730864340414,-4.650500,0.583100,-1.749500,0.270600,0.178400,9.683600,0.052100,0.035700,1.978600
1730864340423,-4.673000,0.471000,-1.712100,0.235300,0.183800,9.699200,0.047900,0.037400,1.977400
1730864340433,-4.785100,0.418700,-1.712100,0.246600,0.175400,9.675200,0.050200,0.035700,1.972500
1730864340442,-4.844900,0.426100,-1.757000,0.232900,0.180200,9.647100,0.047400,0.036700,1.966700
1730864340452,-4.755200,0.418700,-1.727100,0.216700,0.173000,9.653700,0.044100,0.035200,1.968100
1730864340463,-4.949600,0.553200,-1.779400,0.227500,0.186200,9.674600,0.046300,0.037900,1.972400
1730864340473,-4.822500,0.657900,-1.824300,0.233500,0.176600,9.671600,0.045700,0.035800,1.967000
1730864340483,-4.859900,0.650400,-1.734600,0.235900,0.153800,9.619500,0.048000,0.031300,1.961100
1730864340493,-4.710300,0.680300,-1.749500,0.250800,0.159200,9.642300,0.051100,0.032400,1.965800
1730864340503,-4.687900,0.657900,-1.749500,0.318500,0.140700,9.611800,0.064900,0.028600,1.959500
1730864340513,-4.867400,0.381300,-1.846700,0.356200,0.032900,9.688400,0.072600,0.006700,1.975200
1730864340523,-4.673000,0.014900,-1.600000,0.131100,0.252000,9.448300,0.072800,0.008000,1.962100
1730864340533,-4.426200,-1.375700,-1.734600,0.357400,0.211300,9.753100,0.062600,0.043000,1.988400
1730864340543,-4.605700,0.672900,-1.719600,0.078400,0.253200,9.721900,0.015900,0.051600,1.982000
1730864340553,-4.762700,0.807400,-1.689700,0.183200,0.127500,9.642300,0.037300,0.026000,1.965800
1730864340563,-4.388800,-1.136400,-1.614900,0.261600,0.182600,9.596800,0.053300,0.037200,1.956500
1730864340573,-4.538400,-1.286000,-1.682200,0.351400,0.154400,9.747100,0.071600,0.031400,1.987100
1730864340583,-4.650500,0.957000,-1.697200,0.279000,0.167000,9.690200,0.049000,0.036900,1.964300
1730864340593,-4.837400,-1.039200,-1.667300,0.228700,0.179600,9.623100,0.046600,0.036600,1.961900
1730864340603,-4.874800,-1.016800,-1.839200,0.193900,0.182000,9.696200,0.039500,0.037100,1.976800
1730864340613,-4.792600,-1.031700,-1.742000,0.207100,0.170600,9.699200,0.042200,0.034700,1.977400
1730864340623,-4.882300,-1.039200,-1.689700,0.156800,0.167000,9.696200,0.031900,0.034000,1.976800
1730864340633,-4.904700,-1.136400,-1.727100,0.238900,0.107100,9.717700,0.048700,0.021800,1.918700
1730864340643,-4.762700,-1.136400,-1.764500,0.228100,0.188000,9.420200,0.052200,0.029900,1.941000
1730864340653,-4.830000,-1.091600,-1.772000,0.204100,0.138900,9.707600,0.041600,0.028300,1.979100
1730864340663,-4.463600,0.986900,-1.629900,0.196300,0.174200,9.613600,0.040000,0.035500,1.959900
1730864340673,-4.590700,-1.158900,-1.689700,0.335900,0.159800,9.676400,0.068400,0.032500,1.972700
1730864340682,-4.620600,0.912100,-1.659800,0.259200,0.143100,9.636900,0.052800,0.029100,1.964700
1730864340692,-4.643000,0.897200,-1.674800,0.199300,0.161000,9.680000,0.053100,0.034700,1.967700
1730864340702,-4.590700,0.934600,-1.704700,0.260400,0.177800,9.620700,0.045000,0.036200,1.961400
1730864340712,-4.620600,0.837400,-1.637400,0.221500,0.146000,9.676400,0.045100,0.029700,1.972700
1730864340722,-4.605700,0.889700,-1.622400,0.247200,0.144200,9.665100,0.050400,0.029400,1.970400
1730864340732,-4.486000,0.934600,-1.659800,0.240100,0.147800,9.636300,0.048900,0.030100,1.964500
1730864340742,-4.478600,0.822400,-1.704700,0.258000,0.145400,9.653700,0.052600,0.029600,1.968100
1730864340752,-4.508500,0.934600,-1.674800,0.247200,0.157400,9.660300,0.051700,0.037300,1.974800
1730864340762,-4.366400,-1.001800,-1.585000,0.227500,0.183800,9.678200,0.046300,0.037400,1.973100
1730864340772,-4.448600,0.979400,-1.644800,0.204700,0.191000,9.643500,0.041700,0.038900,1.966000
1730864340782,-4.501000,0.964500,-1.637400,0.217300,0.179000,9.676400,0.044300,0.036400,1.972700
1730864340792,-4.456100,0.919600,-1.659800,0.216700,0.183200,9.689000,0.044100,0.037300,1.975300
1730864340802,-4.501000,0.882200,-1.674800,0.234100,0.165200,9.670400,0.047700,0.033600,1.971500
1730864340812,-4.448600,0.889700,-1.682200,0.252600,0.161000,9.658500,0.051600,0.032800,1.969200
1730864340822,-4.545800,0.919600,-1.689700,0.242400,0.164000,9.666800,0.049400,0.033400,1.970800
1730864340832,-4.553300,0.979400,-1.757000,0.244800,0.164000,9.659700,0.049900,0.033400,1.969300
1730864340842,-4.747700,0.867300,-1.674800,0.226900,0.159800,9.633300,0.046200,0.032500,1.963900
1730864340852,-4.740200,0.912100,-1.779400,0.218500,0.150200,9.642900,0.044500,0.030600,1.965900
1730864340862,-4.590700,0.919600,-1.801900,0.224500,0.165200,9.644100,0.049600,0.034500,1.967700
1730864340871,-4.493500,0.949500,-1.600000,0.243600,0.172400,9.671000,0.051000,0.035100,1.971600
1730864340882,-4.493500,0.942000,-1.592500,0.250200,0.161000,9.665600,0.051000,0.032800,1.970500
1730864340892,-4.456100,0.792500,-1.629900,0.237100,0.162800,9.669200,0.048300,0.033200,1.971300
1730864340902,-4.463600,0.882200,-1.727100,0.238300,0.164600,9.659100,0.048500,0.033500,1.969200
1730864340912,-4.463600,0.874700,-1.734600,0.226900,0.168200,9.675800,0.046200,0.034300,1.972600
1730864340922,-4.538400,0.957000,-1.786900,0.219100,0.166400,9.674000,0.042700,0.036200,1.966500
1730864340932,-4.777600,-1.031700,-1.786900,0.225700,0.167600,9.650700,0.046000,0.034100,1.967500
1730864340942,-4.777600,0.889700,-1.839200,0.246600,0.133500,9.613000,0.050200,0.027200,1.959800
1730864340952,-4.687900,-1.009300,-1.824300,0.226300,0.208900,9.782400,0.046100,0.042600,1.994300
1730864340962,-4.635600,-1.039200,-1.712100,0.268800,0.126300,9.594400,0.054800,0.025700,1.956000
1730864340972,-4.493500,0.971900,-1.704700,0.217900,0.235900,9.538700,0.044400,0.048000,1.944700
1730864340982,-4.568300,0.934600,-1.772000,0.289100,0.101100,9.830900,0.037300,0.032100,1.957300
1730864340992,-4.314100,-1.016800,-1.674800,0.256800,0.219100,9.559700,0.052300,0.044600,1.948900
1730864341002,-4.396300,-1.024300,-1.652300,0.293300,0.138900,9.741100,0.059800,0.028300,1.985900
1730864341011,-4.351500,0.643000,-1.719600,0.140100,0.171800,9.651300,0.028500,0.035000,1.967600
1730864341021,-4.478600,0.957000,-1.719600,0.259800,0.174800,9.662100,0.052900,0.035600,1.969800
1730864341032,-4.486000,-1.024300,-1.719600,0.280200,0.177800,9.608200,0.038600,0.033300,1.968800
1730864341041,-4.665500,0.964500,-1.749500,0.189800,0.010100,9.717100,0.052300,0.027300,1.981000
1730864341051,-4.463600,0.867300,-1.704700,0.235300,0.179000,9.613600,0.047900,0.036400,1.959900
1730864341061,-4.486000,0.792500,-1.727100,0.214900,0.163400,9.644700,0.043800,0.033300,1.966300
1730864341071,-4.553300,0.986900,-1.794400,0.213700,0.159800,9.701000,0.043500,0.032500,1.977700
1730864341081,-4.501000,0.889700,-1.742000,0.223900,0.176000,9.672200,0.045600,0.035800,1.971900
1730864341091,-4.471100,0.859800,-1.659800,0.259200,0.165800,9.649500,0.045400,0.038900,1.985200
1730864341101,-4.530900,0.979400,-1.772000,0.253200,0.142500,9.603400,0.051600,0.029000,1.957800
1730864341111,-4.478600,-1.091600,-1.757000,0.255600,0.189800,9.615400,0.052100,0.038600,1.960300
1730864341121,-4.568300,0.957000,-1.697200,0.264600,0.158600,9.750700,0.053900,0.032300,1.987900
1730864341131,-4.463600,0.770100,-1.607500,0.196300,0.149000,9.632700,0.040000,0.030300,1.963800
1730864341141,-4.441200,0.904600,-1.652300,0.237100,0.202300,9.584200,0.048300,0.041200,1.953900
1730864341151,-4.583200,0.792500,-1.742000,0.249600,0.164000,9.710000,0.035100,0.033400,1.972000
1730864341161,-4.590700,-1.016800,-1.764500,0.235300,0.173000,9.644100,0.047900,0.035200,1.966100
1730864341171,-4.530900,0.964500,-1.667300,0.252000,0.168800,9.648300,0.051300,0.034400,1.967000
1730864341181,-4.725300,0.874700,-1.659800,0.206500,0.173600,9.672800,0.042100,0.035400,1.972000
1730864341191,-4.680400,0.971900,-1.622400,0.255000,0.167600,9.674600,0.052000,0.034100,1.972400
1730864341201,-4.508500,0.957000,-1.727100,0.262800,0.185600,9.625500,0.053500,0.033200,1.968600
1730864341211,-4.770200,0.904600,-1.734600,0.232900,0.162800,9.687200,0.047100,0.033200,1.974900
1730864341220,-4.501000,0.949500,-1.712100,0.234700,0.170600,9.639900,0.047800,0.034700,1.965300
1730864341230,-4.568300,-1.016800,-1.697200,0.225700,0.170000,9.623700,0.046000,0.034600,1.962000
1730864341241,-4.725300,0.837400,-1.764500,0.223300,0.146000,9.636300,0.045500,0.029700,1.964500
1730864341251,-4.695400,0.814900,-1.794400,0.229300,0.152600,9.617700,0.046700,0.031100,1.960800
1730864341260,-4.650500,0.882200,-1.757000,0.235300,0.155000,9.611800,0.050000,0.029500,1.958400
1730864341271,-4.553300,0.837400,-1.764500,0.244200,0.158000,9.569300,0.049800,0.032200,1.950900
1730864341281,-4.426200,0.844800,-1.659800,0.208900,0.201700,9.689600,0.042600,0.041100,1.975400
1730864341291,-4.628100,0.867300,-1.697200,0.198700,0.183200,9.993800,0.040500,0.037300,2.037400
1730864341301,-4.687900,0.986900,-1.779400,0.242400,0.158600,9.847100,0.049400,0.032300,2.007500
1730864341311,-4.448600,-1.031700,-1.712100,0.258600,0.238900,9.401000,0.052700,0.048700,1.916600
1730864341321,-4.560800,0.785000,-1.719600,0.277200,0.205300,9.557900,0.038600,0.017300,2.009800
1730864341330,-4.635600,0.822400,-1.697200,0.160400,0.137100,9.646500,0.032700,0.027900,1.966600
1730864341341,-4.501000,-1.226100,-1.794400,0.310700,0.216100,9.490200,0.063300,0.044000,1.934800
1730864341350,-4.658000,0.919600,-1.794400,0.243000,0.165200,9.651900,0.049500,0.033600,1.967700
1730864341360,-4.732800,0.732700,-1.644800,0.135300,0.127500,9.735100,0.027500,0.026000,1.984700
1730864341370,-4.433700,-1.001800,-1.764500,0.276000,0.171200,9.632100,0.056200,0.041200,1.952500
1730864341380,-4.665500,0.785000,-1.764500,0.299900,0.202300,9.691400,0.040400,0.031100,1.975800
1730864341390,-4.620600,0.800000,-1.861700,0.220300,0.125700,9.725500,0.044900,0.025600,1.982700
1730864341400,-4.411300,0.882200,-1.689700,0.241800,0.189800,9.612400,0.049300,0.038600,1.959700
1730864341410,-4.560800,0.882200,-1.749500,0.234100,0.189200,9.613600,0.047700,0.038500,1.959900
1730864341420,-4.815000,0.844800,-1.831800,0.197500,0.189800,9.687200,0.040200,0.038600,1.974900
1730864341430,-4.725300,0.971900,-1.794400,0.229300,0.194500,9.729700,0.045600,0.036200,1.962700
1730864341440,-4.515900,0.785000,-1.734600,0.215500,0.146000,9.577000,0.043900,0.029700,1.952500
1730864341450,-4.687900,0.889700,-1.772000,0.244800,0.150200,9.670400,0.049900,0.030600,1.971500
1730864341460,-4.650500,0.912100,-1.846700,0.207100,0.160400,9.674600,0.042200,0.032700,1.972400
1730864341470,-4.538400,0.807400,-1.712100,0.211300,0.164600,9.647700,0.043000,0.033500,1.966900
1730864341480,-4.530900,0.859800,-1.637400,0.228100,0.193300,9.621300,0.046500,0.039400,1.961500
1730864341490,-4.530900,-1.046700,-1.779400,0.225100,0.188600,9.679400,0.048500,0.035100,1.982600
1730864341500,-4.800100,0.919600,-1.764500,0.234100,0.182600,9.685400,0.047700,0.037200,1.974600
1730864341510,-4.650500,0.971900,-1.809300,0.235900,0.179000,9.678800,0.048000,0.036400,1.973200
1730864341520,-4.628100,0.949500,-1.734600,0.227500,0.175400,9.681800,0.046300,0.035700,1.973800
1730864341530,-4.560800,0.979400,-1.652300,0.231100,0.176000,9.679400,0.047100,0.035800,1.973300
1730864341540,-4.523400,0.986900,-1.704700,0.247200,0.176600,9.657900,0.050400,0.033400,1.964800
1730864341550,-4.545800,0.964500,-1.689700,0.243600,0.164000,9.637500,0.046100,0.030700,1.966700
1730864341560,-4.493500,-1.016800,-1.644800,0.247200,0.145400,9.645300,0.050400,0.029600,1.966400
1730864341570,-4.486000,0.942000,-1.712100,0.180200,0.226300,9.572800,0.036700,0.046100,1.951600
1730864341580,-4.568300,0.964500,-1.704700,0.201700,0.175400,9.650700,0.041100,0.035700,1.967500
1730864341590,-4.643000,-1.166300,-1.600000,0.327500,0.180200,9.724300,0.066700,0.036700,1.982500
1730864341600,-4.628100,0.762600,-1.570100,0.326300,0.237700,9.583000,0.054500,0.039400,1.956600
1730864341610,-4.673000,0.657900,-1.248600,0.216700,0.193900,9.712400,0.044100,0.039500,1.980100
1730864341620,-4.643000,0.897200,-1.099000,0.231100,0.143100,9.684200,0.047100,0.029100,1.974300
1730864341629,-4.680400,0.874700,-1.046700,0.191600,0.117900,9.641700,0.039000,0.024000,1.965600
1730864341638,-4.710300,0.837400,-1.271000,0.163400,0.117900,9.610000,0.033300,0.024000,1.959200
1730864341649,-4.770200,0.904600,-1.570100,0.153200,0.150800,9.665100,0.031200,0.030700,1.970400
1730864341659,-4.785100,0.912100,-1.682200,0.210100,0.149600,9.697400,0.063400,0.036600,1.961900
1730864341669,-4.949600,0.343900,-1.712100,0.382000,0.226900,9.464500,0.077800,0.046200,1.929500
1730864341679,-5.824400,0.755100,-1.749500,0.183200,0.073000,9.627900,0.037300,0.014800,1.962800
1730864341689,-6.041200,0.882200,-1.906500,0.123900,0.038300,9.804600,0.025200,0.007800,1.998900
1730864341699,-5.151500,0.403700,-2.265400,0.014900,0.029300,9.577000,0.003000,0.005900,1.952500
1730864341709,-4.830000,-1.443000,-2.871000,0.302900,0.116100,9.786000,0.061700,0.016400,1.974100
1730864341719,-4.919700,0.605600,-3.581300,0.373600,0.080800,9.683000,0.034900,0.010800,1.970800
1730864341729,-4.919700,0.515800,-3.828100,0.254400,0.146600,9.675200,0.051800,0.029900,1.972500
1730864341739,-4.777600,0.456000,-3.753300,0.347800,0.238900,9.599200,0.070900,0.048700,1.957000
1730864341749,-5.069200,0.044800,-3.648600,0.271200,0.310100,9.707000,0.055200,0.063200,1.979000
1730864341759,-4.934600,0.097100,-3.304700,0.310100,0.232900,9.691400,0.063200,0.047400,1.975800
1730864341769,-4.650500,0.074700,-3.162600,0.215500,0.276600,9.626100,0.032500,0.039100,1.960400
1730864341779,-4.695400,0.553200,-3.304700,0.270600,0.029900,9.677000,0.055100,0.006100,1.972900
1730864341789,-4.927200,0.343900,-4.344000,0.361000,0.120900,9.668000,0.073600,0.024600,1.971000
1730864341799,-4.994500,0.179400,-7.035600,0.346600,0.111900,9.645300,0.070600,0.022800,1.966400
1730864341809,-4.972000,0.142000,-10.250700,0.279000,0.011900,9.620700,0.056800,0.002400,1.961400
1730864341819,-5.121600,0.500900,-13.712400,0.302900,0.055600,9.682400,0.061700,0.011300,1.973900
1730864341829,-5.024400,-1.084100,-17.293800,0.350200,0.095800,9.672800,0.049500,0.045800,1.971600
1730864341839,-4.717800,0.814900,-17.338700,0.056200,0.382000,9.702800,0.011400,0.077800,1.978100
1730864341849,-4.269200,0.755100,-16.239600,0.313100,-1.301600,9.647700,0.063800,0.265300,1.966900
1730864341859,-4.628100,0.949500,-11.775900,0.307100,0.176000,9.634500,0.062600,0.035800,1.964200
1730864341869,-5.173900,0.785000,-10.138500,0.287400,0.346600,9.747100,0.058500,0.070600,1.987100
1730864341879,-4.433700,0.127100,-12.142300,0.450200,0.441800,9.638700,0.091700,0.034000,1.989600
1730864341889,-4.396300,1.076600,-17.338700,0.479600,0.167000,9.605800,0.082100,0.002500,1.966400
1730864341899,-4.456100,1.517700,-17.652700,0.447200,0.060400,9.674600,0.091100,0.012300,1.972400
1730864341909,-4.613100,2.011200,-18.086300,0.645400,0.161600,9.707000,0.131500,0.032900,1.979000
1730864341919,-4.949600,2.699100,-19.469600,0.929200,0.059800,9.730300,0.189400,0.012200,1.983700
1730864341929,-5.099100,3.431800,-21.847200,-1.024400,0.165200,9.592600,0.208800,0.033600,1.955600
1730864341939,-5.233700,3.222500,-23.679000,0.911900,0.083800,9.547700,0.140600,0.011800,1.963700
1730864341949,-4.934600,1.069100,-24.636000,0.288500,0.122100,9.678800,0.058800,0.024900,1.973200
1730864341959,-4.545800,0.613000,-23.723900,0.016100,0.108900,9.654900,0.003200,0.022200,1.968300
1730864341969,-4.329000,0.201800,-21.593000,0.226900,0.040100,9.622500,0.046200,0.008100,1.961700
1730864341979,-4.403800,0.628000,-19.409700,0.399300,0.020300,9.671000,0.081400,0.004100,1.971600
1730864341989,-3.962700,-1.143900,-17.660200,0.390900,0.161600,9.642300,0.079700,0.032900,1.965800
1730864341999,-3.843000,-1.413100,-16.052700,0.167000,0.285600,9.674600,0.021800,0.056200,1.980700
1730864342008,-4.239300,0.560700,-16.269500,0.334700,0.244200,9.687800,0.068200,0.049800,1.975000
1730864342018,-4.261700,0.052300,-16.800300,0.469400,0.264600,9.699200,0.095700,0.053900,1.977400
1730864342028,-4.306600,0.740200,-17.518100,0.569400,0.191000,9.716500,0.116000,0.038900,1.980900
1730864342038,-4.358900,1.009300,-18.759300,0.683100,0.111300,9.745900,0.139200,0.022700,1.986900
1730864342048,-4.015000,0.979400,-20.000400,0.756800,0.038300,9.762000,0.154200,0.023400,1.990600
1730864342058,-3.476700,0.912100,-22.422900,0.767600,0.035300,9.763800,0.158800,0.016800,1.999200
1730864342068,-3.125300,1.091600,-24.254700,0.786700,0.016100,9.848300,0.160400,0.003200,2.007800
1730864342077,-2.459800,1.293400,-26.550100,0.641800,0.002300,9.915900,0.130800,0.000400,2.021600
1730864342088,-1.592500,2.056100,-28.187500,0.320300,0.067000,9.924900,0.065300,0.013600,2.023400
1730864342098,0.388700,2.639300,-28.157600,0.103500,0.100500,9.902800,0.021100,0.020500,2.018900
1730864342108,1.300900,2.654200,-26.976300,0.099300,0.423900,9.871600,0.040100,0.108100,2.010700
1730864342118,2.295300,0.919600,-25.368800,0.129900,0.410700,9.917700,0.026400,0.083700,2.021900
1730864342128,1.241100,-3.222500,-25.069700,0.029300,0.413700,9.933300,0.005900,0.084300,2.025100
1730864342138,0.246700,-5.585100,-24.598600,0.149000,0.439400,10.004500,0.030300,0.089500,2.039600
1730864342148,-1.966400,-8.665600,-24.471500,0.149000,0.377800,10.178800,0.030300,0.077000,2.075100
1730864342158,-3.372000,-11.686200,-25.316400,0.024500,0.377200,9.913500,0.005000,0.076900,2.021100
1730864342168,-4.777600,-10.549700,-28.703400,0.243000,0.188000,9.683600,0.074900,0.000400,2.000200
1730864342178,-7.536600,-10.086200,-29.361400,0.499900,0.028700,9.913500,0.101900,0.005800,2.021100
1730864342188,-8.792700,-9.084300,-30.161400,0.549000,0.013100,10.044700,0.111900,0.002600,2.047800
1730864342198,-10.033800,-8.605800,-30.654900,0.483100,0.121500,10.270400,0.098500,0.024700,2.093800
1730864342218,-9.413200,-5.772000,-31.223100,0.481300,0.060400,10.017700,0.098100,0.012300,2.058300
1730864342228,-8.082400,3.970100,-30.340800,0.455600,0.139500,10.096200,0.084100,0.050400,2.086100
1730864342238,-6.998200,9.876800,-29.234300,0.304100,0.267000,10.381200,0.062000,0.054400,2.116400
1730864342248,-5.555200,15.357300,-27.581900,0.134100,0.177800,10.430300,0.027300,0.036200,2.126400
1730864342258,-3.573900,19.290100,-25.540700,0.011300,0.016700,10.400900,0.002300,0.003400,2.120400
1730864342268,-1.398100,20.307000,-24.037900,0.047900,0.034700,10.108700,0.009700,0.007000,2.060900
1730864342288,-1.405600,16.890100,-25.682800,0.013100,0.008300,9.412400,0.002600,0.001700,1.918900
1730864342298,-2.325200,14.123600,-27.327700,0.172400,0.089800,9.284200,0.035100,0.018300,1.892800
1730864342308,-3.319700,11.073100,-28.681000,0.330500,0.193900,9.214800,0.067300,0.039500,1.878600
1730864342317,-3.917800,8.089900,-29.301600,0.394500,0.231100,9.345900,0.080400,0.047100,1.905300
1730864342326,-4.127100,5.151500,-29.294100,0.282000,0.262200,9.516000,0.057400,0.053400,1.940000
1730864342337,-4.613100,0.590600,-28.456700,0.107700,0.389100,9.618300,0.022000,0.085900,1.986600
1730864342346,-8.217000,-2.459800,-28.755700,0.075400,0.415500,9.699800,0.015300,0.084700,1.977500
1730864342356,-9.906700,-4.687900,-29.735200,0.106500,0.258000,9.636900,0.021700,0.052600,1.964700
1730864342366,-11.671200,-6.183300,-30.393200,0.112500,0.074800,9.990800,0.022900,0.015200,2.036800
1730864342377,-12.037600,-7.768400,-31.372600,0.511300,0.216100,10.090800,0.104200,0.044000,2.057200
1730864342397,-7.132800,-2.669200,-36.808300,0.534000,0.506500,9.875800,0.105900,0.082800,1.946000
1730864342407,-4.964500,0.246700,-38.513000,0.293300,0.344800,9.279500,0.059800,0.070300,1.891800
1730864342417,-3.902800,0.530800,-40.030800,0.127500,0.219100,9.290200,0.026000,0.044600,1.894000
1730864342427,-3.289700,1.024300,-41.615900,0.138900,0.114300,9.344700,0.028300,0.023300,1.905100
1730864342437,-2.901000,1.233600,-41.526100,0.324500,0.443600,9.330900,0.066100,0.090400,1.902300
1730864342447,-2.706600,0.231700,-39.821400,0.599300,0.659200,9.441700,0.109100,0.175000,1.939600
1730864342457,-3.244900,-2.205600,-34.662400,0.228700,0.836400,9.504600,0.055200,0.170500,1.937700
1730864342467,-4.381400,0.201800,-31.918400,0.144200,0.624500,9.433300,0.029400,0.127300,1.923200
1730864342477,-5.577600,1.218700,-29.458600,0.091600,0.377800,9.592000,0.018600,0.077000,1.955500
1730864342487,-5.981400,1.914000,-28.142700,0.101700,0.270600,9.615400,0.020700,0.055100,1.960300
1730864342497,-6.258000,3.312200,-27.387500,0.255600,0.134100,9.665600,0.052100,0.027300,1.970500
1730864342507,-6.332800,7.334700,-26.677200,0.305900,0.124500,9.615400,0.007800,0.002400,2.001400
1730864342517,-6.071100,8.665600,-27.402400,0.013700,0.008300,9.871000,0.002800,0.001700,2.012400
1730864342527,-5.704800,10.138500,-28.000600,0.000000,0.002900,9.842300,0.000000,0.000600,2.006500
1730864342537,-5.487900,11.895500,-28.180000,0.116700,0.003500,9.814700,0.023800,0.000700,2.000900
1730864342547,-4.717800,13.151700,-28.314600,0.211300,0.015500,9.718300,0.043000,0.003100,1.981300
1730864342557,-3.858000,13.779700,-28.598700,0.249600,0.076000,9.585400,0.050900,0.015500,1.947500
1730864342567,-3.858000,12.411400,-28.673500,0.261600,0.161000,9.552500,0.057200,0.058700,1.948700
1730864342577,-5.368300,10.923600,-28.710900,0.354400,0.350800,9.566300,0.072200,0.071500,1.950300
1730864342587,-6.729100,9.458100,-28.239800,0.434600,0.297500,9.569800,0.088600,0.060600,1.951000
1730864342596,-7.140300,7.783300,-27.357600,0.396900,0.198100,9.602800,0.080900,0.040400,1.957700
1730864342606,-6.923500,6.347800,-26.729500,0.285000,0.093400,9.643500,0.058100,0.019000,1.966000
1730864342617,-6.415100,5.405700,-26.445400,0.146000,0.014300,9.710000,0.003000,0.015500,1.978100
1730864342626,-4.912200,6.175800,-27.477200,0.138300,0.101100,9.600400,0.010600,0.020600,1.957200
1730864342636,-3.596300,7.731000,-28.471600,0.001700,0.032300,9.607600,0.000300,0.006500,1.958700
1730864342646,-2.302800,9.854400,-29.608100,0.031100,0.050800,9.688400,0.006300,0.010300,1.975200
1730864342656,0.814900,12.546000,-30.004400,0.011300,0.140100,9.715300,0.002300,0.028500,1.980700
1730864342666,0.299000,14.976000,-29.750200,0.034700,0.172400,9.680600,0.007000,0.035100,1.973600
1730864342676,1.323300,16.067600,-30.520300,0.234100,0.130500,9.488400,0.085000,0.020800,1.890800
1730864342686,1.532700,12.000200,-30.826800,0.446600,0.138300,9.199200,0.091000,0.028100,1.875400
1730864342696,0.971900,8.007600,-31.559600,0.524500,0.221500,9.250700,0.106900,0.045100,1.885900
1730864342706,0.074700,3.768300,-33.174500,0.580100,0.341800,9.344100,0.118200,0.069700,1.905000
1730864342716,-1.308400,0.336400,-34.924100,0.552000,0.328100,9.289000,0.112500,0.066800,1.893700
1730864342726,-2.302800,-3.140200,-36.217600,0.380800,0.308900,9.207000,0.077600,0.062900,1.877000
1730864342735,-3.357000,-3.618700,-36.778400,0.199300,0.326900,9.208800,0.012400,0.077600,1.876000
1730864342745,-2.684100,-1.906500,-37.346600,0.090400,0.309500,9.223200,0.018400,0.063100,1.880300
1730864342756,-1.577600,0.119600,-38.378400,0.058000,0.210700,9.301000,0.011800,0.042900,1.896200
1730864342766,0.089700,1.196200,-39.141000,0.125700,0.194500,9.417200,0.025600,0.039600,1.919900
1730864342775,1.884100,2.190700,-39.619500,0.223300,0.232900,9.547100,0.045500,0.047400,1.946400
1730864342785,3.872900,2.265400,-39.933600,0.328100,0.323900,9.648900,0.065700,0.078100,1.957200
1730864342796,5.742100,1.831800,-40.150400,0.322700,0.376600,9.515400,0.087600,0.076700,1.939900
1730864342806,5.697300,0.837400,-40.015800,0.616100,0.417300,9.375300,0.125600,0.085000,1.911300
1730864342816,5.046800,-1.024300,-39.634500,0.606500,0.548400,9.363300,0.123600,0.111800,1.908900
1730864342826,3.446800,-3.117800,-39.163500,0.567600,0.624500,9.453100,0.115700,0.127300,1.927200
1730864342836,2.033600,-5.338400,-38.819500,0.509500,0.621500,9.466300,0.103800,0.126700,1.929900
1730864342846,1.069100,-7.416900,-37.765300,0.413100,0.646000,9.456100,0.051800,0.132600,1.947800
1730864342855,0.029900,-6.624400,-36.883000,0.200500,0.605300,9.579400,0.040800,0.123400,1.953000
1730864342865,0.732700,-4.433700,-35.798900,0.202900,0.668200,9.609400,0.041300,0.136200,1.959100
1730864342876,1.719600,-1.786900,-35.013800,0.226900,0.725000,9.795600,0.046200,0.147800,1.997000
1730864342886,2.773800,0.927100,-34.729700,0.290900,0.769400,9.944100,0.059300,0.156800,2.027300
1730864342896,3.274800,2.833700,-34.669900,0.241200,0.693300,9.960800,0.049100,0.141300,2.030700
1730864342906,2.908400,6.908500,-32.935300,0.048400,0.731000,9.871000,0.027400,0.148600,1.991400
1730864342916,2.586900,8.329100,-31.522200,0.186200,0.764600,9.639900,0.037900,0.155800,1.965300
1730864342925,2.228000,9.009500,-30.213700,0.219100,0.819000,9.563900,0.044600,0.166900,1.949800
1730864342935,1.734600,9.308600,-28.890300,0.262800,0.866900,9.495600,0.053500,0.176700,1.935900
1730864342945,1.502800,9.697400,-27.522100,0.328100,0.899900,9.390200,0.066800,0.183400,1.914400
1730864342955,1.323300,9.914200,-26.288400,0.302300,0.944200,9.459100,0.059900,0.211500,1.918700
1730864342966,0.456000,11.289900,-23.559400,0.447200,-1.051400,9.328000,0.071800,0.214300,1.901700
1730864342976,-1.727100,11.304900,-22.520100,0.517900,-1.092100,9.253100,0.105500,0.222600,1.886400
1730864342986,-2.026200,10.721700,-21.503200,0.640600,-1.143600,9.258500,0.130600,0.233100,1.887500
1730864342996,-1.398100,10.452500,-21.009800,0.699900,-1.029200,9.375300,0.142700,0.209800,1.911300
1730864343005,0.545800,10.512300,-20.875200,0.776500,0.854400,9.483600,0.158300,0.174100,1.933400
1730864343015,0.284100,10.729200,-20.493900,0.727400,0.740600,9.608200,0.141200,0.150600,1.976800
1730864343025,1.241100,10.759100,-20.336900,0.633400,0.741200,9.835100,0.129100,0.151100,2.005100
1730864343035,1.547600,10.564700,-20.217200,0.589100,0.686100,9.910500,0.120100,0.139800,2.020500
1730864343045,1.712100,10.467500,-19.910700,0.552000,0.768800,9.842900,0.112500,0.156700,2.006700
1730864343055,1.480400,10.706700,-19.178000,0.613700,0.962700,9.799800,0.125100,0.196200,1.997900
1730864343065,0.590600,11.080600,-18.258300,0.729800,-1.157900,9.668600,0.148800,0.236000,1.908600
1730864343075,-2.781300,9.779600,-16.187200,0.786100,-1.331000,9.498600,0.160000,0.255300,1.924800
1730864343085,-4.717800,8.276800,-15.723700,0.680100,0.908300,9.461500,0.138600,0.185100,1.928900
1730864343095,-6.011300,7.865600,-15.925500,0.572400,0.758000,9.451300,0.116600,0.154500,1.926800
1730864343105,-6.542200,9.174000,-16.591000,0.590900,0.704100,9.411800,0.120400,0.143500,1.918800
1730864343115,-6.474900,10.639400,-16.972300,0.624500,0.763400,9.445300,0.127300,0.155600,1.925600
1730864343125,-6.766500,11.484300,-17.189100,0.681300,0.802300,9.456100,0.159600,0.155500,1.923300
1730864343135,-6.960900,10.908600,-17.697600,0.783100,0.750800,9.409400,0.173500,0.153000,1.918300
1730864343145,-6.781400,9.174000,-17.585400,0.790300,0.807700,9.378800,0.161100,0.164600,1.912100
1730864343155,-6.990800,7.416900,-17.248900,0.713100,0.758600,9.408200,0.145300,0.154600,1.918000
1730864343165,-7.596400,5.944000,-17.592900,0.715500,0.641800,9.398600,0.145800,0.130800,1.916100
1730864343175,-8.471200,4.859900,-18.034000,0.778900,0.623900,9.371700,0.158800,0.127100,1.910600
1730864343185,-8.762800,4.299100,-19.155500,0.830400,0.667000,9.339300,0.155500,0.159900,1.878100
1730864343195,-8.359000,3.678500,-19.349900,0.769900,0.889700,9.112400,0.156900,0.181300,1.857700
1730864343205,-7.678600,3.895400,-19.043400,0.788500,0.946600,9.150700,0.160700,0.192900,1.865600
1730864343215,-6.803800,4.568300,-18.789200,0.846000,0.933400,9.330300,0.172400,0.190300,1.902200
1730864343225,-5.779500,5.413200,-18.699400,0.914800,0.839400,9.466900,0.186500,0.171100,1.930000
1730864343235,-4.254300,6.489800,-18.549900,0.865200,0.795100,9.476400,0.176300,0.162100,1.932000
1730864343245,-3.439300,8.531000,-17.712500,0.809500,0.893300,9.490800,0.174900,0.211600,1.927100
1730864343255,-4.628100,8.336600,-16.875100,1.010600,-1.145400,9.410000,0.206000,0.233500,1.918400
1730864343265,-6.071100,6.729100,-15.940500,1.095700,-1.135800,9.469300,0.223300,0.231500,1.930500
1730864343275,-7.215100,4.545800,-15.155400,1.086700,-1.059100,9.479400,0.221500,0.215900,1.932600
1730864343284,-7.888000,2.781300,-14.617100,1.053200,0.904100,9.444100,0.214700,0.184300,1.925400
1730864343294,-8.059900,1.846700,-14.355400,1.083700,0.843600,9.496200,0.238000,0.184200,1.932900
1730864343303,-8.164600,0.418700,-14.714300,1.167500,0.977700,9.451900,0.240300,0.199300,1.927000
1730864343314,-8.673000,-2.056100,-14.534900,1.067500,-1.029800,9.497400,0.217600,0.209900,1.936200
1730864343325,-9.323500,-3.394400,-14.138600,0.972900,-1.031000,9.425000,0.198300,0.210200,1.921500
1730864343335,-10.250700,-4.179500,-13.824600,0.971700,-1.019000,9.330300,0.198100,0.207700,1.902200
1730864343355,-11.118000,-5.772000,-12.239500,0.754400,0.828000,9.372900,0.162900,0.174800,1.916000
1730864343364,-10.646900,-5.166400,-11.648800,0.730400,0.884900,9.451300,0.148900,0.180400,1.926800
1730864343373,-9.876800,-3.835600,-10.863800,0.672400,0.893300,9.532100,0.137000,0.182100,1.943300
1730864343383,-8.927300,-2.295300,-10.116100,0.741800,0.841200,9.470500,0.151200,0.171500,1.930700
1730864343394,-8.097300,-1.338300,-9.278700,0.795100,0.845400,9.409400,0.162100,0.172300,1.918300
1730864343404,-6.953400,0.515800,-8.620700,0.837600,0.811300,9.435100,0.170700,0.165400,1.930900
1730864343414,-6.145900,0.635500,-7.574000,0.887300,0.815500,9.471100,0.194500,0.173200,1.951500
1730864343424,-6.026300,-1.061700,-7.304800,0.952000,0.783100,9.648900,0.194000,0.159600,1.967100
1730864343434,-5.689800,-1.151400,-7.080500,0.926800,0.667000,9.665600,0.188900,0.135900,1.970500
1730864343444,-5.278600,-1.293400,-6.916000,0.865200,0.643000,9.675200,0.176300,0.131100,1.972500
1730864343454,-5.413200,-1.614900,-6.811300,0.879500,0.650800,9.682400,0.179300,0.132600,1.973900
1730864343464,-6.018800,-2.190700,-6.706600,0.974100,0.663400,9.690200,0.198900,0.147000,1.986200
1730864343474,-7.259900,-3.783200,-6.512200,0.822600,0.792700,9.727900,0.182800,0.161600,1.983200
1730864343484,-7.618800,-3.544000,-6.183300,0.835200,0.740600,9.767400,0.170200,0.151000,1.991300
1730864343494,-7.499200,-2.444900,-5.854300,0.773500,0.665800,9.812300,0.157700,0.135700,2.000400
1730864343504,-7.282400,0.590600,-5.383300,0.809500,0.681300,9.750100,0.165000,0.138900,1.987700
1730864343514,-7.020700,1.016800,-5.226200,0.940600,0.753800,9.633300,0.191700,0.153600,1.963900
1730864343524,-6.243100,2.086000,-4.216900,0.978300,0.835200,9.599800,0.189800,0.172900,1.958100
1730864343534,-4.620600,1.943900,-3.611200,0.878900,0.868100,9.575800,0.179100,0.177000,1.952200
1730864343544,-4.149600,1.816800,-2.818700,0.786700,0.868700,9.614200,0.160400,0.177100,1.960000
1730864343554,-4.157100,2.564500,-2.130800,0.839400,0.794500,9.657900,0.171100,0.161900,1.968900
1730864343564,-4.411300,3.065400,-1.629900,0.987300,0.771700,9.638700,0.201200,0.157300,1.965000
1730864343574,-4.807500,2.325200,-1.181300,1.101100,0.878900,9.628500,0.224400,0.179100,1.998100
1730864343583,-8.628200,0.269100,0.373800,0.953200,0.881300,9.801000,0.188700,0.145900,1.998400
1730864343594,-10.691800,0.231700,0.246700,0.974700,0.670000,9.705800,0.198700,0.136500,1.978700
1730864343604,-12.254400,0.590600,0.119600,0.931000,0.702900,9.648900,0.189800,0.143300,1.967100
1730864343613,-13.562900,0.800000,0.553200,0.902900,0.672400,9.668000,0.184000,0.137000,1.971000
1730864343623,-14.841400,0.904600,0.747600,0.895100,0.595100,9.617700,0.182400,0.121300,1.960800
1730864343633,-16.434000,1.271000,0.814900,0.931000,0.548400,9.608800,0.181500,0.132600,1.961700
1730864343643,-18.527500,2.018700,2.048600,1.043600,0.797500,9.630900,0.197500,0.162500,1.963500
1730864343653,-19.155500,3.013100,3.304700,1.022000,0.929800,9.679400,0.208300,0.189500,1.973300
1730864343663,-19.753700,3.200000,4.852400,1.211200,-1.031600,9.575200,0.246900,0.210300,1.952100
1730864343673,-21.645300,1.891600,6.916000,1.266900,-1.080700,9.789600,0.258300,0.220300,1.995800
1730864343682,-24.994900,0.695300,9.435700,1.268700,0.991500,9.941100,0.258600,0.202100,2.026700
1730864343693,-29.413700,-1.368200,13.667600,1.385500,-1.092700,10.025500,0.301800,0.179400,2.051300
1730864343714,-42.722400,-12.217100,16.037700,1.362100,0.325100,10.159600,0.277700,0.066200,2.071200
1730864343733,-46.281400,-15.484400,15.933000,0.941800,0.202900,10.028500,0.192000,0.041300,2.044500
1730864343753,-45.728100,-16.329300,16.770400,0.826200,0.210700,9.880000,0.134000,0.045400,2.023400
1730864343763,-45.272000,-15.686300,16.471400,0.600500,0.294500,9.980600,0.122400,0.060000,2.034700
1730864343773,-43.956100,-13.869400,15.791000,0.541200,0.434600,9.935100,0.110300,0.088600,2.025500
1730864343783,-42.146700,-10.960900,14.706800,0.501700,0.672400,9.806400,0.102200,0.137000,1.999200
1730864343793,-39.372800,-7.805700,13.159100,0.432800,0.860400,9.647100,0.088200,0.175400,1.966700
1730864343803,-36.023200,-4.366400,11.820800,0.382000,0.916000,9.496200,0.075300,0.169300,1.940700
1730864343813,-29.062300,1.876600,10.422600,0.522700,0.765800,9.638100,0.099600,0.156100,1.964900
1730864343823,-26.550100,4.575800,10.310500,0.617900,0.764600,9.778800,0.125900,0.155800,1.993600
1730864343833,-25.794900,5.891700,10.355300,0.640000,0.749000,9.941700,0.130400,0.152700,2.026800
1730864343843,-26.602400,6.041200,10.489900,0.643600,0.750200,9.984200,0.131200,0.152900,2.035500
1730864343853,-27.679100,5.458000,10.661900,0.653200,0.792700,9.914100,0.133100,0.161600,2.021200
1730864343863,-28.695900,4.837400,11.170300,0.693900,0.863400,9.792600,0.146700,0.174900,1.975700
1730864343873,-30.400600,3.521500,11.439500,0.743600,0.843600,9.653100,0.151600,0.171900,1.968000
1730864343883,-31.282900,2.228000,11.888100,0.754400,0.868700,9.624300,0.153800,0.177100,1.962100
1730864343893,-32.180100,0.605600,12.381500,0.716100,0.950800,9.563900,0.145900,0.193800,1.949800
1730864343903,-32.441800,0.411200,12.635800,0.725600,0.858600,9.422000,0.147900,0.175000,1.920800
1730864343913,-32.195100,0.665400,12.389000,0.773500,0.877700,9.287200,0.157700,0.178900,1.888600
1730864343923,-31.649300,0.441100,10.983400,0.646600,0.993300,9.263900,0.117100,0.228600,1.897200
1730864343933,-31.268000,0.209300,10.153500,0.539400,1.189100,9.328600,0.109900,0.242400,1.901800
1730864343943,-30.266100,0.074700,9.450600,0.482500,1.198700,9.323800,0.098300,0.244300,1.900800
1730864343952,-29.017400,1.121500,8.934700,0.471800,1.259100,9.329700,0.096100,0.256700,1.902000
1730864343962,-27.993100,2.796300,8.329100,0.482500,1.322600,9.357300,0.098300,0.269600,1.907700
1730864343972,-27.499600,5.114100,7.843100,0.570000,1.385500,9.425000,0.135000,0.297200,1.923800
1730864343982,-27.768800,8.815100,7.693600,0.815500,1.427400,9.400400,0.156800,0.291000,1.916500
1730864343992,-28.224900,10.003900,7.656200,0.819000,1.386700,9.332700,0.166900,0.282700,1.902700
1730864344002,-28.912800,10.811400,7.693600,0.831000,1.512400,9.305800,0.169400,0.308300,1.897200
1730864344012,-29.712800,10.901100,7.798300,0.858000,1.657900,9.306400,0.174900,0.338000,1.897300
1730864344022,-30.782000,10.497400,7.820700,0.917200,1.744700,9.341100,0.187000,0.355700,1.904400
1730864344032,-31.888500,9.637600,7.588900,0.962100,1.763300,9.436300,0.205200,0.373900,1.929500
1730864344042,-32.965200,6.265500,7.888000,0.993300,1.857300,9.379400,0.202500,0.378600,1.912200
1730864344052,-33.197000,4.919700,8.194500,0.883700,1.867500,9.293200,0.180100,0.380700,1.894600
1730864344062,-33.137200,4.067300,8.261800,0.767600,1.873500,9.258500,0.156400,0.381900,1.887500
1730864344072,-32.456800,4.112200,8.142200,0.768800,1.889000,9.339900,0.156700,0.385100,1.904100
1730864344082,-31.746500,4.777600,8.082400,0.833400,1.885400,9.438700,0.169900,0.384300,1.955500
1730864344092,-30.348300,7.349700,8.381500,0.959200,1.952500,9.538700,0.206700,0.391100,1.956200
1730864344102,-29.727700,8.852500,9.233800,1.084300,1.791400,9.531500,0.221000,0.365200,1.943200
1730864344112,-29.660400,9.331000,10.467500,1.103500,1.841100,9.454900,0.224900,0.375300,1.927600
1730864344122,-29.922100,9.174000,11.372200,1.090300,2.010000,9.366900,0.222200,0.409700,1.909600
1730864344132,-30.296000,8.456200,11.910500,1.086100,2.229100,9.238100,0.221400,0.454400,1.883400
1730864344142,-30.535200,6.886100,12.142300,1.075300,2.395600,9.228000,0.227700,0.501000,1.895700
1730864344152,-30.774500,1.996300,11.932900,1.117200,2.444700,9.347700,0.233700,0.498400,1.905700
1730864344162,-31.223100,-1.001800,11.790900,1.145400,2.450700,9.428500,0.233500,0.499600,1.922200
1730864344172,-32.090400,-3.229900,11.955400,1.113600,2.560800,9.413600,0.227000,0.522000,1.919100
1730864344182,-33.107200,-4.523400,12.366600,1.013000,2.676400,9.322600,0.206500,0.545600,1.900600
1730864344192,-33.847500,-5.158900,12.486200,0.873500,2.712900,9.160300,0.178100,0.553100,1.867500
1730864344202,-34.228800,-5.009400,12.306800,0.728000,2.754800,9.038200,0.123600,0.566500,1.833700
1730864344212,-33.398800,-3.058000,12.224500,0.557400,2.770400,8.953700,0.113600,0.564800,1.825400
1730864344222,-32.337100,-1.585000,11.559100,0.549000,2.851200,8.869900,0.111900,0.581200,1.808300
1730864344232,-30.774500,0.269100,10.654400,0.575400,2.958400,8.822000,0.117300,0.603100,1.798500
1730864344242,-28.942700,2.033600,10.063700,0.551400,3.038000,8.835800,0.112400,0.619300,1.801300
1730864344252,-26.879100,3.080400,9.637600,0.624500,3.076400,8.879500,0.127300,0.627100,1.816700
1730864344262,-24.942600,2.871000,8.919800,0.737000,3.054800,8.911200,0.168900,0.615200,1.821500
1730864344272,-24.950100,1.809300,8.478600,0.815500,3.029600,8.931000,0.166200,0.617600,1.820800
1730864344282,-25.488400,0.418700,8.119800,0.836400,3.042800,8.947700,0.170500,0.620300,1.824200
1730864344292,-26.019200,0.553200,8.074900,0.833400,3.015900,8.928000,0.169900,0.614800,1.820100
1730864344302,-26.632300,-1.188800,8.374000,0.798700,2.982300,8.942400,0.162800,0.608000,1.823100
1730864344312,-26.819300,-1.562600,8.852500,0.761000,3.017700,8.981300,0.151800,0.616300,1.830000
1730864344322,-27.395000,-2.078500,10.056300,0.898100,3.139800,8.914800,0.157100,0.640100,1.817500
1730864344331,-27.552000,-1.547600,9.996400,0.767000,3.304500,8.856100,0.156300,0.673700,1.805500
1730864344341,-28.105300,0.904600,9.712300,0.760400,3.400300,8.875900,0.155000,0.693200,1.809500
1730864344351,-29.039900,0.934600,9.398300,0.767600,3.484100,8.858500,0.156400,0.710300,1.806000
1730864344361,-30.094100,-1.734600,8.882400,0.719700,3.564300,8.834600,0.146700,0.726600,1.801100
1730864344371,-30.482900,-2.287900,8.217000,0.617300,3.704400,8.881900,0.115600,0.751200,1.834200
1730864344381,-29.667900,-1.128900,7.992700,0.593300,3.669100,9.027400,0.120900,0.748000,1.840400
1730864344391,-28.224900,0.328900,7.611300,0.634000,3.640400,9.010000,0.129200,0.742100,1.836900
1730864344401,-26.527700,1.981300,7.215100,0.643600,3.604500,8.999200,0.131200,0.734800,1.834700
1730864344411,-25.144500,3.895400,6.871100,0.681900,3.547600,8.954300,0.139000,0.723200,1.825500
1730864344421,-24.015500,5.615000,6.631900,0.764000,3.548800,8.847200,0.155700,0.723500,1.793200
1730864344431,-22.766800,6.422500,7.215100,0.792700,3.672100,8.795700,0.163400,0.769500,1.794300
1730864344441,-22.744400,5.944000,6.856200,0.787300,3.929600,8.746000,0.160500,0.801100,1.783000
1730864344451,-22.871500,5.054300,6.041200,0.828000,4.018800,8.688500,0.168800,0.819300,1.771300
1730864344461,-22.841600,4.127100,5.316000,0.835200,4.091800,8.690300,0.170200,0.834200,1.771700
1730864344471,-22.662200,3.626200,4.658000,0.767600,4.191800,8.692100,0.156400,0.854600,1.772000
1730864344481,-22.901400,3.506600,4.224300,0.691500,4.183500,8.645400,0.143400,0.851900,1.740100
1730864344491,-23.940700,3.319700,3.566400,0.703500,4.178100,8.569300,0.153500,0.851800,1.747000
1730864344501,-24.127600,3.140200,3.454200,0.768200,4.162500,8.650800,0.156600,0.848600,1.763600
1730864344511,-24.135100,2.968200,3.349600,0.767600,4.155300,8.723800,0.156400,0.847100,1.778500
1730864344521,-24.008000,3.155200,3.349600,0.792100,4.151100,8.732800,0.161400,0.846300,1.780300
1730864344531,-24.217300,3.476700,3.409400,0.874700,4.116400,8.662100,0.178300,0.839200,1.765900
1730864344541,-24.389300,4.179500,3.596300,0.907100,4.066100,8.583700,0.179800,0.817900,1.744100
1730864344551,-23.940700,5.727200,3.431800,0.846000,4.004400,8.435200,0.172400,0.816400,1.719700
1730864344561,-23.851000,6.661800,3.087900,0.861000,4.092400,8.392100,0.175500,0.834300,1.710900
1730864344571,-23.738800,7.267400,2.826200,0.799900,4.194200,8.355000,0.163000,0.855100,1.703300
1730864344581,-23.895800,7.902900,2.549500,0.785500,4.281000,8.374100,0.160100,0.872800,1.707200
1730864344591,-23.851000,8.807600,2.467300,0.859200,4.340300,8.404100,0.175100,0.884800,1.706900
1730864344601,-24.277100,9.368400,2.646700,0.929800,4.379200,8.372300,0.203600,0.915700,1.692700
1730864344611,-25.009900,9.375900,2.796300,1.062700,4.460100,8.337600,0.216600,0.909300,1.699800
1730864344621,-25.929500,8.635700,3.005600,1.081900,4.371500,8.369300,0.220500,0.891200,1.706200
1730864344630,-27.133300,7.641200,3.289700,1.135200,4.338500,8.422000,0.231400,0.884500,1.717000
1730864344640,-28.247300,5.577600,3.633700,1.190300,4.357700,8.398700,0.242600,0.888400,1.712200
1730864344650,-29.533300,3.416900,4.015000,1.082500,4.399600,8.372900,0.207700,0.906800,1.696200
1730864344660,-31.260500,1.278500,4.859900,1.019000,4.478600,8.255600,0.195000,0.913000,1.683100
1730864344670,-31.477300,0.837400,5.084200,0.861000,4.545100,8.196300,0.175500,0.926600,1.671000
1730864344680,-31.253000,1.405600,5.001900,0.823200,4.652900,8.158600,0.167800,0.948600,1.663300
1730864344690,-30.826800,2.736500,4.710300,0.802300,4.763600,8.120300,0.163500,0.971100,1.655500
1730864344700,-30.206200,4.822500,4.598200,0.843600,4.815100,8.132800,0.171900,0.981600,1.658000
1730864344710,-29.361400,6.474900,4.687900,0.940000,4.801400,8.173000,0.206700,0.977200,1.670600
1730864344720,-28.718400,7.760900,5.226200,1.108800,4.752900,8.129200,0.226000,0.968900,1.657300
1730864344730,-28.808100,7.813200,6.011300,1.041800,4.736100,8.086700,0.212400,0.965500,1.648600
1730864344740,-29.600600,6.736600,6.198200,1.041800,4.769600,8.028700,0.212400,0.972400,1.636800
1730864344750,-30.557700,5.502900,6.228100,1.064500,4.897800,7.934100,0.217000,0.998500,1.617500
1730864344760,-31.372600,4.299100,6.145900,1.072900,5.051000,7.831700,0.218700,1.029700,1.596600
1730864344770,-32.157700,3.065400,5.809400,0.987900,5.159400,7.847200,0.184600,1.064900,1.607700
1730864344780,-32.195100,3.102800,5.473000,0.799900,5.249200,7.899900,0.163000,1.070100,1.610500
1730864344790,-31.806300,3.506600,5.069200,0.754400,5.335500,7.887900,0.153800,1.087700,1.608100
1730864344800,-31.133400,4.523400,4.844900,0.753800,5.403100,7.874200,0.153600,1.101500,1.605300
1730864344810,-30.086600,5.869200,4.478600,0.746600,5.499500,7.886700,0.152200,1.121200,1.607900
1730864344820,-29.047300,7.611300,4.239300,0.767000,5.529500,7.866400,0.169100,1.122100,1.593300
1730864344831,-26.729500,11.409600,3.715900,0.829800,5.427100,7.748400,0.175100,1.106400,1.579700
1730864344840,-25.705200,12.718000,3.566400,0.868100,5.461800,7.725100,0.177000,1.113500,1.574900
1730864344850,-24.718300,13.159100,3.349600,0.843600,5.564800,7.689800,0.171900,1.134500,1.567700
1730864344860,-23.798600,13.398400,2.983200,0.828600,5.659400,7.632300,0.168900,1.153800,1.556000
1730864344870,-23.133200,13.510500,2.482200,0.910700,5.727600,7.588600,0.185600,1.167700,1.547100
1730864344880,-22.071500,13.547900,1.547600,0.948400,5.722300,7.497000,0.198100,1.166800,1.520500
1730864344890,-20.800400,14.161000,1.226100,1.000500,5.724000,7.525700,0.203900,1.166900,1.534300
1730864344900,-21.009800,14.213400,1.121500,1.046000,5.706700,7.568200,0.213200,1.163400,1.542900
1730864344910,-21.540600,13.667600,0.867300,1.104100,5.722800,7.586200,0.225000,1.166700,1.546600
1730864344920,-21.622900,12.845100,0.912100,1.121400,5.743800,7.597000,0.228600,1.171000,1.548800
1730864344930,-21.660300,12.060000,0.927100,1.143000,5.771900,7.585600,0.233000,1.176700,1.546500
1730864344940,-21.488300,11.222600,0.979400,1.144800,5.787500,7.568800,0.231800,1.178400,1.539300
1730864344949,-20.912600,11.319800,1.143900,1.189100,5.816900,7.522700,0.242400,1.185900,1.533600
1730864344959,-20.149900,11.260000,1.375700,1.170500,5.843200,7.525700,0.238600,1.191200,1.534300
1730864344969,-19.551800,11.289900,1.472900,1.132800,5.890500,7.538900,0.230900,1.200900,1.536900
1730864344980,-19.192900,11.910500,1.697200,1.143000,5.964700,7.514300,0.233000,1.216000,1.531900
1730864344989,-18.617200,12.710500,2.078500,1.183100,6.031800,7.491600,0.248000,1.237000,1.513300
1730864344998,-16.927400,13.465700,2.100900,1.369900,6.065300,7.354500,0.262200,1.236500,1.499300
1730864345009,-16.097500,13.398400,2.026200,1.336400,6.040800,7.268800,0.272400,1.231500,1.481900
1730864345019,-15.761100,13.084400,1.914000,1.330400,6.034800,7.274800,0.271200,1.230300,1.483100
1730864345029,-15.753600,12.516100,1.607500,1.308800,6.049200,7.311300,0.266800,1.233200,1.490600
1730864345039,-15.768500,11.843200,1.024300,1.269900,6.089900,7.265200,0.258900,1.241500,1.481200
1730864345049,-15.604000,11.499300,0.149500,1.241200,6.124000,7.222100,0.252500,1.253500,1.467000
1730864345059,-14.557300,12.299300,0.171900,1.274700,6.170100,7.186800,0.259800,1.257900,1.465200
1730864345069,-13.704900,13.263800,0.553200,1.268700,6.164100,7.218500,0.258600,1.256700,1.471600
1730864345078,-12.949800,14.026400,0.859800,1.274700,6.170700,7.203000,0.259800,1.258000,1.468500
1730864345089,-12.508600,14.572200,-1.398100,1.316600,6.148600,7.104800,0.268400,1.253500,1.448400
1730864345099,-12.269400,14.968500,-1.570100,1.421400,6.104300,7.041900,0.289700,1.244500,1.440900
1730864345109,-12.553500,14.377800,-1.682200,1.505200,6.064100,7.067700,0.322600,1.233000,1.445800
1730864345119,-13.248900,13.757300,-1.749500,1.575900,6.084500,7.120900,0.321200,1.240400,1.451700
1730864345129,-13.839500,13.144200,-1.779400,1.517800,6.106100,7.125700,0.309400,1.244800,1.452700
1730864345140,-14.392800,13.106800,-1.742000,1.514800,6.152800,7.097600,0.308800,1.254300,1.447000
1730864345149,-14.796600,13.660100,-1.772000,1.531000,6.189300,7.077200,0.312100,1.261800,1.442800
1730864345159,-14.669400,14.138600,-2.145800,1.526800,6.212600,7.019200,0.302600,1.265200,1.421500
1730864345169,-13.697500,14.422700,-3.401900,1.484300,6.203600,6.923400,0.305100,1.264700,1.411400
1730864345179,-13.099300,14.490000,-4.007500,1.528000,6.207200,6.920400,0.311500,1.265500,1.410800
1730864345189,-12.703000,14.721800,-4.590700,1.541100,6.231800,6.969500,0.314200,1.270500,1.420800
1730864345199,-12.209600,14.736700,-5.016900,1.632200,6.224000,7.016200,0.332700,1.268900,1.430400
1730864345209,-11.768400,14.310600,-5.360800,1.667500,6.187500,7.006000,0.339900,1.261400,1.428300
1730864345219,-12.037600,13.495600,-5.966400,1.683600,6.188100,6.953300,0.345200,1.258500,1.418900
1730864345229,-12.075000,12.785300,-6.445000,1.717200,6.148000,6.979000,0.350000,1.253400,1.422800
1730864345239,-12.299300,12.478700,-6.848700,1.781800,6.182100,6.989800,0.363200,1.260300,1.425000
1730864345249,-12.546000,11.977800,-7.117900,1.777700,6.246200,6.959300,0.362400,1.273400,1.418800
1730864345259,-12.650700,12.037600,-7.454300,1.720200,6.346800,6.898800,0.350700,1.293900,1.406400
1730864345269,-12.276900,12.845100,-7.708500,1.635100,6.428800,6.841900,0.333300,1.310600,1.395100
1730864345279,-10.243200,15.589100,-8.673000,1.684200,6.558100,6.843100,0.369800,1.341600,1.417800
1730864345289,-8.912300,16.486300,-9.689900,1.859700,6.603600,6.903000,0.379100,1.346300,1.407300
1730864345299,-7.955300,16.710600,-10.714200,1.890200,6.553900,6.806600,0.385300,1.336100,1.387600
1730864345309,-7.297300,17.121800,-11.222600,1.920200,6.452700,6.833500,0.391400,1.315500,1.393100
1730864345319,-6.848700,18.198500,-11.484300,1.986600,6.394700,6.932900,0.405000,1.303700,1.413400
1730864345329,-6.489800,19.192900,-11.775900,2.112400,6.380300,6.948500,0.443800,1.301000,1.404200
1730864345339,-5.368300,19.656500,-12.052600,2.177000,6.373700,6.809600,0.441700,1.299400,1.388300
1730864345349,-5.009400,19.372400,-12.269400,2.176400,6.298300,6.767700,0.443700,1.284000,1.379700
1730864345359,-4.987000,19.185400,-12.770300,2.183600,6.256900,6.767100,0.445100,1.275600,1.379600
1730864345369,-4.785100,19.596700,-13.271300,2.226100,6.246800,6.801800,0.453800,1.273500,1.386700
1730864345378,-4.351500,19.693900,-13.518000,2.309900,6.295300,6.959300,0.470900,1.283400,1.418800
1730864345388,-4.336500,19.222800,-12.964700,2.414100,6.370100,7.025700,0.486200,1.299600,1.441400
1730864345398,-4.299100,17.720000,-12.336700,2.301600,6.314400,6.988000,0.469200,1.287300,1.424600
1730864345408,-4.000000,17.742400,-11.947900,2.286000,6.304200,6.829900,0.466000,1.285200,1.392400
1730864345418,-3.259800,18.108800,-12.060000,2.304000,6.271300,6.713200,0.469700,1.278500,1.368600
1730864345428,-2.287900,18.609700,-12.269400,2.305200,6.194700,6.674300,0.469900,1.262900,1.360700
1730864345438,-1.338300,19.192900,-12.546000,2.323100,6.136000,6.668300,0.473600,1.250900,1.362600
1730864345448,0.179400,21.331300,-13.061900,2.396800,6.175500,6.683900,0.501900,1.275800,1.365300
1730864345458,0.538300,22.579900,-13.144200,2.441100,6.246800,6.767700,0.497600,1.273500,1.379700
1730864345468,1.106500,23.948200,-13.047000,2.588400,6.388100,6.658700,0.527700,1.302300,1.357500
1730864345478,1.689700,24.621100,-13.189000,2.595000,6.353900,6.653300,0.529000,1.295400,1.356400
1730864345488,2.325200,25.316400,-13.204000,2.721900,6.344400,6.643100,0.554900,1.293400,1.354300
1730864345498,2.691600,25.249100,-13.458200,2.782400,6.256900,6.703000,0.581400,1.258900,1.375200
1730864345508,2.257900,24.262200,-13.891900,2.851800,6.152800,6.680900,0.590000,1.254300,1.362000
1730864345518,1.734600,24.359400,-14.004000,2.914700,6.149800,6.668300,0.594200,1.253700,1.359400
1730864345528,1.360700,24.808000,-13.824600,2.896100,6.097700,6.703000,0.590400,1.243100,1.366500
1730864345538,1.300900,25.854700,-13.495600,2.935600,6.071300,6.685000,0.598500,1.237700,1.362900
1730864345548,1.585000,26.886500,-13.331100,2.991900,6.047400,6.663500,0.609900,1.232900,1.358500
1730864345558,2.228000,27.746400,-13.682500,3.048200,6.037800,6.633000,0.638400,1.235200,1.348200
1730864345568,2.893500,27.208000,-13.944200,3.199100,6.109600,6.616200,0.652200,1.245600,1.348800
1730864345578,2.736500,26.034200,-14.176000,3.261400,6.115600,6.556900,0.664900,1.246800,1.336700
1730864345588,2.041100,24.538800,-14.400300,3.320000,6.087500,6.494000,0.676800,1.241000,1.323900
1730864345598,1.203700,23.073400,-14.632100,3.369700,6.071900,6.425800,0.687000,1.237900,1.310000
1730864345608,0.381300,21.794800,-14.811500,3.359000,6.011400,6.433000,0.684800,1.225500,1.310300
1730864345618,-1.383200,20.000400,-15.566700,3.359600,5.991700,6.427000,0.699500,1.213000,1.319400
1730864345628,-2.228000,19.349900,-15.723700,3.473900,5.882100,6.555700,0.708200,1.199200,1.336500
1730864345638,-2.960800,18.624700,-15.776000,3.551800,5.796500,6.575500,0.724100,1.181700,1.340500
1730864345648,-3.686000,17.705000,-15.566700,3.694900,5.795300,6.501800,0.753200,1.181500,1.325500
1730864345658,-4.515900,16.777900,-15.028300,3.702700,5.739000,6.533600,0.754800,1.170000,1.332000
1730864345668,-5.375800,16.075100,-14.243300,3.729600,5.755800,6.532400,0.765500,1.190600,1.324400
1730864345678,-6.579500,16.471400,-13.383400,3.754700,5.910300,6.520400,0.764000,1.204900,1.329300
1730864345688,-6.041200,17.301300,-13.129200,3.794900,5.970700,6.516800,0.773600,1.217200,1.328600
1730864345698,-5.316000,18.901300,-12.785300,3.776300,5.994100,6.515000,0.769800,1.222000,1.328200
1730864345708,-4.381400,20.531300,-12.777800,3.786500,5.985700,6.490500,0.771900,1.220300,1.323200
1730864345718,-3.469200,22.079000,-13.084400,3.785900,5.991100,6.448500,0.771800,1.221400,1.314600
1730864345727,-2.168200,23.499600,-13.383400,3.865500,6.005500,6.457500,0.791300,1.214400,1.320800
1730864345737,0.171900,23.888300,-13.480600,3.906800,5.965300,6.498200,0.796500,1.216100,1.324800
1730864345747,0.643000,22.871500,-13.488100,3.946900,6.012000,6.522200,0.804600,1.225700,1.329700
1730864345757,1.121500,21.809800,-13.390900,3.999000,6.020400,6.546100,0.815300,1.227400,1.334500
1730864345767,1.121500,20.912600,-13.047000,4.013400,5.994700,6.662900,0.818200,1.222100,1.358300
1730864345777,1.413100,20.037800,-12.934800,4.197800,5.987500,6.443700,0.855800,1.220700,1.307900
1730864345787,3.072900,19.200400,-13.091800,4.191200,5.813300,6.415600,0.859700,1.164700,1.300400
1730864345797,4.665500,20.493900,-12.792800,4.213400,5.675500,6.304200,0.859000,1.157100,1.285200
1730864345807,6.370200,21.495800,-12.546000,4.157700,5.541400,6.403600,0.847600,1.129700,1.305500
1730864345817,7.723500,23.095800,-12.740400,4.312200,5.654600,6.270100,0.879100,1.152800,1.278300
1730864345827,9.929100,25.361300,-13.211500,4.277500,5.752800,6.280900,0.872000,1.172800,1.280500
1730864345837,11.918000,27.641700,-13.226400,4.115800,5.719300,6.449100,0.868500,1.164900,1.270000
1730864345847,14.362900,31.933400,-13.032000,4.413400,5.604900,6.188700,0.879800,1.142700,1.261700
1730864345857,14.871300,32.748400,-13.002100,4.467300,5.558800,6.080900,0.910700,1.133300,1.239700
1730864345867,14.998400,32.180100,-12.770300,4.582800,5.434800,6.086300,0.934300,1.108000,1.240800
1730864345877,14.534900,30.049200,-12.538600,4.699600,5.325300,6.079700,0.958100,1.085600,1.239500
1730864345887,13.682500,26.722100,-12.134800,4.794200,5.167800,6.095900,0.977400,1.053500,1.242700
1730864345897,12.673100,19.589200,-11.491800,4.899000,5.190600,6.018000,0.990200,1.084300,1.238000
1730864345907,11.626400,17.809700,-10.729200,4.748700,5.270200,6.238400,0.968100,1.074400,1.271800
1730864345917,9.891800,13.645100,-10.033800,4.718100,5.157600,6.159300,0.961900,1.051500,1.255700
1730864345927,8.187100,10.370300,-10.497400,4.724100,5.124100,6.009100,0.963100,1.044600,1.225000
1730864345937,7.200100,8.852500,-11.177800,4.675600,5.142100,5.919200,0.953200,1.048300,1.206700
1730864345947,6.998200,9.861900,-11.843200,4.582200,5.092400,5.924600,0.934200,1.038200,1.236200
1730864345957,7.798300,13.899300,-11.962800,4.688200,5.145600,6.063500,0.994700,1.032200,1.263700
1730864345967,7.865600,13.510500,-11.678700,5.009100,5.040900,6.272500,1.021200,1.027700,1.278800
1730864345977,8.179600,12.688100,-11.529200,4.996600,5.096600,6.325200,1.018600,1.039000,1.289500
1730864345987,8.747800,11.940400,-11.222600,4.987600,5.174400,6.355100,1.016800,1.054900,1.295600
1730864345997,9.660000,11.947900,-10.848800,4.951100,5.161200,6.360500,1.009300,1.052200,1.296700
1730864346007,11.409600,13.368500,-10.983400,4.873800,5.137300,6.228200,0.980900,1.107100,1.305900
1730864346017,17.420900,19.634000,-11.491800,4.658300,5.408500,6.371900,0.963600,1.102600,1.299000
1730864346027,19.125600,21.495800,-10.871200,4.824100,5.280400,6.340200,0.983500,1.076500,1.292600
1730864346037,20.650900,23.656600,-11.514200,5.014500,5.163000,6.116200,1.022300,1.052600,1.246900
1730864346047,22.108900,24.785600,-12.568500,5.033700,5.085200,6.143200,1.026200,1.036700,1.252400
1730864346057,22.864000,25.712700,-13.233900,5.047500,5.031900,6.148600,1.029000,1.025800,1.253500
1730864346066,22.856500,24.927600,-13.308700,5.214500,4.875000,6.142000,1.093300,0.951200,1.255900
1730864346076,21.256500,22.938800,-12.994600,5.496500,4.523500,6.158100,1.120600,0.922200,1.255400
1730864346086,19.806000,19.290100,-13.166600,5.561800,4.518200,6.218600,1.133900,0.921100,1.267800
1730864346096,19.170500,16.434000,-13.562900,5.460000,4.596600,6.342000,1.113100,0.937100,1.292900
1730864346106,19.342400,14.714300,-13.615200,5.343800,4.666600,6.409000,1.089400,0.951400,1.306600
1730864346116,20.628500,14.340500,-13.510500,5.289400,4.608600,6.464100,1.078300,0.939500,1.275000
1730864346125,25.809900,16.927400,-14.460100,5.344400,4.561900,6.253900,1.110200,0.936800,1.270300
1730864346136,29.024900,18.572300,-14.288100,5.609700,4.488200,6.365300,1.143600,0.915000,1.297700
1730864346146,30.961400,19.118100,-14.019000,5.704900,4.293600,6.376700,1.163000,0.875300,1.300000
1730864346156,32.299800,18.564900,-13.996500,5.721100,4.261900,6.362900,1.166300,0.868800,1.297200
1730864346166,33.735300,17.241500,-13.989100,5.689900,4.302600,6.364100,1.160000,0.877100,1.297400
1730864346176,35.395200,16.060100,-13.787200,5.649800,4.317000,6.324000,1.137900,0.860100,1.303700
1730864346186,37.683100,15.103100,-13.832000,5.581500,4.134400,6.430000,1.129500,0.842800,1.310900
1730864346196,38.176500,15.035800,-14.041400,5.530000,4.061900,6.377300,1.127400,0.828100,1.300100
1730864346206,38.056900,14.729300,-14.804000,5.488100,3.977500,6.196500,1.118800,0.810900,1.263300
1730864346216,38.176500,14.093700,-15.484400,5.498900,3.869100,6.052800,1.121000,0.788800,1.234000
1730864346226,38.602700,13.607700,-15.888200,5.497700,3.767300,6.081500,1.120800,0.768000,1.239800
1730864346236,39.342900,13.069400,-17.480700,5.579700,3.607400,6.157500,1.156400,0.724800,1.266900
1730864346246,40.090600,12.860100,-18.116300,5.765400,3.481100,6.263500,1.175400,0.709700,1.276900
1730864346255,40.277500,13.211500,-18.138700,5.804300,3.359600,6.265300,1.183300,0.684900,1.277300
1730864346265,40.397100,13.413300,-17.720000,5.780900,3.244600,6.230000,1.178500,0.661400,1.270100
1730864346276,40.255100,13.592800,-17.106900,5.820400,3.197300,6.207200,1.186600,0.651800,1.265500
1730864346286,40.471900,13.263800,-16.434000,5.944400,3.151200,6.204800,1.211900,0.642400,1.287100
1730864346296,41.563500,11.521700,-15.551700,5.977900,3.151200,6.313200,1.222000,0.637900,1.313500
1730864346306,43.582300,11.357200,-15.865700,6.004300,3.035000,6.483300,1.224100,0.618700,1.321700
1730864346316,46.565500,11.888100,-16.262000,6.022200,2.958400,6.490500,1.227700,0.603100,1.323200
1730864346326,49.795500,13.174100,-16.404100,6.037200,2.912900,6.409000,1.230800,0.593800,1.306600
1730864346336,52.853500,14.983500,-16.037700,6.112600,2.794900,6.379700,1.246200,0.569800,1.300600
1730864346346,55.059200,16.598500,-15.379700,6.226400,2.692000,6.443200,1.299300,0.531300,1.317200
1730864346356,56.113400,16.643300,-14.041400,6.526400,2.514100,6.461100,1.314000,0.512500,1.317200
1730864346366,55.634900,14.691900,-13.398400,6.475500,2.417100,6.415000,1.320100,0.492700,1.307800
1730864346376,55.104000,11.895500,-12.927300,6.465900,2.310500,6.346200,1.318200,0.471000,1.293800
1730864346385,54.804900,9.405800,-12.680600,6.496400,2.277000,6.377900,1.324400,0.464200,1.300200
1730864346395,55.201200,7.446800,-12.232000,6.503600,2.263200,6.544300,1.325900,0.461400,1.334200
1730864346405,56.135800,5.727200,-11.618900,6.568300,2.208200,6.760500,1.354600,0.430000,1.402300
1730864346415,57.653600,2.915900,-11.536700,6.638300,2.024300,6.882600,1.353300,0.412700,1.403100
1730864346425,58.251800,1.629900,-11.140400,6.577300,1.866900,6.821000,1.340900,0.380600,1.390600
1730864346435,58.296600,0.396200,-10.893700,6.542500,1.754300,6.739500,1.333800,0.357600,1.374000
1730864346445,57.990100,0.717700,-10.916100,6.504200,1.746500,6.697600,1.326000,0.356000,1.365400
1730864346455,57.429300,-1.824300,-10.901100,6.473100,1.693800,6.711400,1.319700,0.345300,1.381100
1730864346465,55.193700,-4.807500,-10.594600,6.483300,1.550700,6.774300,1.329200,0.290600,1.390000
1730864346475,53.960100,-6.856200,-10.572200,6.519800,1.326200,6.846100,1.329200,0.270300,1.395700
1730864346485,53.040400,-8.919800,-10.519800,6.519800,1.213600,6.850900,1.329200,0.247400,1.396700
1730864346495,52.442300,-11.043200,-10.273100,6.546100,1.092700,6.782000,1.334500,0.222700,1.382600
1730864346505,52.554400,-13.129200,-9.839400,6.463500,1.050200,6.648500,1.317700,0.214100,1.355400
1730864346515,53.803100,-14.056300,-9.488000,6.248000,1.118400,6.576700,1.229300,0.241500,1.328100
1730864346525,57.683500,-10.721700,-8.770200,5.876700,1.181300,6.600000,1.199500,0.240800,1.345500
1730864346535,59.350800,-7.020700,-8.396400,5.843200,1.056200,6.779700,1.191200,0.215300,1.382200
1730864346545,59.851800,-3.342100,-8.187100,5.927600,0.927400,6.904200,1.208400,0.189000,1.407500
1730864346555,60.008800,0.665400,-8.231900,6.051000,0.795700,7.089800,1.233600,0.162200,1.445400
1730864346565,59.545200,0.276600,-8.560900,6.240200,0.573000,7.189800,1.272200,0.116800,1.465800
1730864346575,58.274200,-2.235500,-8.904800,6.414400,0.415500,7.224500,1.332100,0.052600,1.478700
1730864346585,53.750700,-5.532800,-8.598300,6.525200,0.150800,7.240700,1.330300,0.030700,1.476100
1730864346595,50.378700,-9.256200,-8.157100,6.468300,0.028100,7.200600,1.318700,0.005700,1.468000
1730864346605,46.894500,-12.733000,-8.269300,6.476700,0.018500,7.146700,1.320400,0.003700,1.457000
1730864346615,43.604700,-15.918100,-8.650600,6.420400,0.036500,7.064700,1.308900,0.007400,1.440300
1730864346625,40.987800,-18.594800,-8.867400,6.287500,0.063400,6.961700,1.281800,0.012900,1.404400
1730864346635,39.126100,-21.256500,-8.531000,6.104300,0.033500,6.888600,1.211000,0.002900,1.434400
1730864346644,39.642000,-20.964900,-9.211400,5.828800,0.128100,7.244300,1.188300,0.026100,1.476900
1730864346654,40.471900,-19.761100,-9.824500,5.836000,0.282000,7.282600,1.189800,0.057400,1.484700
1730864346665,41.062600,-17.966700,-10.213300,5.904900,0.410700,7.305400,1.203800,0.083700,1.489300
1730864346675,41.159800,-16.867600,-10.146000,6.097700,0.549000,7.351500,1.243100,0.111900,1.498700
1730864346685,41.025200,-17.159200,-9.929100,6.224600,0.714300,7.413100,1.274700,0.160800,1.516200
1730864346695,39.918600,-19.327500,-8.845000,6.252700,0.808300,7.422100,1.269700,0.164700,1.513100
1730864346705,39.440100,-20.860200,-8.246900,6.139000,0.822000,7.372400,1.251500,0.167600,1.503000
1730864346715,39.761600,-22.056500,-7.828200,6.000700,0.828600,7.289800,1.223300,0.168900,1.486200
1730864346725,40.883100,-22.348100,-7.686100,5.917400,0.794500,7.236500,1.206400,0.161900,1.475300
1730864346735,42.505600,-22.041600,-7.611300,5.880300,0.814300,7.274200,1.198800,0.166000,1.483000
1730864346744,44.180400,-21.570500,-7.304800,5.841400,0.940000,7.288600,1.190100,0.214300,1.479400
1730864346755,46.221600,-21.166800,-7.095400,5.783300,-1.081900,7.234100,1.179000,0.220500,1.474800
1730864346764,46.513200,-21.421000,-6.968300,5.632400,-1.181300,7.310100,1.148300,0.240800,1.490300
1730864346774,46.670200,-21.660300,-7.005700,5.613900,-1.253700,7.440700,1.144500,0.255600,1.516900
1730864346784,46.513200,-22.288300,-7.200100,5.700100,-1.213000,7.559200,1.162100,0.247300,1.541100
1730864346794,46.498200,-23.365000,-7.947800,5.905500,-1.147800,7.680800,1.203900,0.234000,1.572000
1730864346804,47.552400,-27.267900,-9.974000,5.864200,-1.255500,7.710700,1.147900,0.312700,1.574700
1730864346814,47.380500,-28.830500,-11.035700,5.651000,-1.704600,7.749000,1.152000,0.347500,1.579800
1730864346834,45.810300,-31.140800,-10.587100,5.548000,-1.904000,7.665200,1.131100,0.388100,1.562700
1730864346854,41.787800,-34.580200,-10.512300,5.354000,-2.008800,7.616100,1.048200,0.429000,1.559400
1730864346874,35.357800,-40.120500,-13.622700,4.929500,-2.081800,7.569400,1.005000,0.424400,1.543200
1730864346894,33.458700,-39.784000,-15.402200,4.946300,-2.074000,7.647200,1.008400,0.422800,1.559000
1730864346914,31.873600,-38.729800,-15.626500,4.852900,-2.292000,7.994500,0.987400,0.514600,1.652900
1730864346934,29.615600,-38.617700,-16.291900,4.963600,-2.769800,8.147800,1.011900,0.564600,1.661100
1730864346954,29.241700,-38.677500,-15.626500,4.820500,-2.845800,8.056800,0.982700,0.580200,1.642500
1730864346974,25.533200,-40.172800,-13.196500,4.505600,-3.062000,7.855600,0.907500,0.621700,1.607100
1730864346994,22.363100,-41.219600,-11.977800,4.393000,-3.120700,7.940600,0.895600,0.636200,1.618800
1730864347014,20.164900,-43.477600,-11.813300,4.351100,-3.123100,8.067000,0.887000,0.636700,1.644600
1730864347034,17.981700,-47.126300,-11.828300,3.988900,-3.085300,8.292700,0.819700,0.629000,1.690600
1730864347054,16.523700,-46.416000,-12.045100,3.667300,-3.204500,8.355000,0.747600,0.653300,1.703300
1730864347074,16.232100,-43.230800,-12.904900,3.399700,-3.257800,8.219700,0.693100,0.664100,1.675700
1730864347094,17.024600,-36.868100,-13.570400,3.590100,-3.387700,8.164000,0.731900,0.690600,1.664400
1730864347114,19.050900,-34.475500,-12.987200,3.514000,-3.648200,8.293900,0.716400,0.743700,1.690900
1730864347134,20.763000,-32.284800,-12.635800,3.305100,-3.784100,8.219100,0.673800,0.771400,1.660700
1730864347152,20.987300,-29.219300,-10.908600,3.103900,-3.757700,8.111300,0.632800,0.766100,1.653600
1730864347173,20.135000,-28.882900,-10.303000,3.164400,-3.891900,8.293900,0.645100,0.793400,1.690900
1730864347193,19.020900,-31.574500,-11.185300,3.109900,-3.939200,8.358600,0.609400,0.818100,1.713900
1730864347213,13.338600,-35.387700,-10.751600,2.826100,-4.182900,8.552600,0.576100,0.852700,1.743600
1730864347233,9.488000,-37.884900,-10.549700,2.579400,-4.187600,8.478300,0.525800,0.853700,1.728500
1730864347243,8.785200,-38.475600,-10.609500,2.506900,-4.152900,8.298700,0.511100,0.846600,1.691800
1730864347253,8.575800,-38.468100,-11.073100,2.475800,-4.105000,8.146600,0.489300,0.847000,1.657700
1730864347263,8.964600,-38.326100,-11.387100,2.421900,-4.195400,8.200500,0.493700,0.855300,1.671800
1730864347273,9.585200,-38.969100,-11.476800,2.492600,-4.172700,8.320200,0.508100,0.850700,1.696200
1730864347283,9.674900,-40.367200,-11.424500,2.575200,-4.122400,8.381300,0.525000,0.840400,1.708700
1730864347293,9.547800,-42.064500,-11.132900,2.546500,-4.179300,8.393900,0.519100,0.852000,1.711300
1730864347303,9.241300,-43.477600,-10.803900,2.396200,-4.258300,8.416600,0.488500,0.868100,1.732200
1730864347313,8.456200,-45.272000,-10.602100,2.093800,-4.376800,8.496900,0.379000,0.890900,1.750700
1730864347323,8.306700,-45.668300,-10.923600,1.743500,-4.334900,8.614200,0.355400,0.883700,1.756200
1730864347333,8.261800,-46.363600,-11.222600,1.716600,-4.340900,8.599300,0.349900,0.885000,1.753100
1730864347343,8.082400,-46.909400,-11.581500,1.833300,-4.305000,8.520800,0.373700,0.877600,1.737100
1730864347353,7.843100,-47.455200,-11.708600,1.880000,-4.336100,8.472900,0.383300,0.884000,1.727400
1730864347363,7.499200,-48.345000,-11.633900,1.800400,-4.486400,8.473500,0.334400,0.947300,1.721600
1730864347373,6.362700,-48.217900,-10.946000,1.487300,-4.670800,8.417200,0.296700,0.952200,1.716000
1730864347383,6.183300,-46.423400,-10.467500,1.304000,-4.603200,8.367000,0.265800,0.938400,1.705800
1730864347393,5.659900,-43.948600,-10.587100,1.208800,-4.533700,8.348400,0.246400,0.924300,1.702000
1730864347403,5.121600,-41.653200,-10.774000,1.160900,-4.510400,8.375900,0.236600,0.919500,1.707600
1730864347413,4.553300,-40.516800,-10.938500,1.165100,-4.529500,8.390300,0.237500,0.923400,1.710500
1730864347423,4.291600,-40.225200,-11.282500,1.154300,-4.554700,8.339400,0.226900,0.935700,1.701000
1730864347433,3.207500,-41.952300,-11.461900,1.060900,-4.660100,8.371700,0.216300,0.950000,1.706700
1730864347443,2.205600,-43.006500,-11.417000,0.969300,-4.801400,8.531600,0.197600,0.978800,1.739300
1730864347452,0.426100,-44.576700,-11.118000,1.029200,-4.791800,8.607100,0.209800,0.976900,1.754700
1730864347463,-2.011200,-46.498200,-11.342300,1.027400,-4.721700,8.647800,0.209400,0.962600,1.763000
1730864347483,-11.783400,-51.986200,-13.959100,0.973500,-4.789400,8.425600,0.214700,0.984800,1.707200
1730864347502,-19.678900,-55.522700,-15.073200,0.889100,-4.711000,8.591500,0.181200,0.960400,1.751500
1730864347522,-26.333300,-58.162000,-14.990900,0.379000,-4.658300,8.643600,0.077200,0.949700,1.762200
1730864347542,-29.630500,-52.606800,-13.607700,0.428100,-4.351100,8.621400,0.079700,0.887000,1.757600
1730864347561,-26.961300,-44.614100,-12.030100,0.403500,-4.095400,8.760900,0.082200,0.834900,1.786100
1730864347582,-23.409800,-38.191500,-10.063700,0.501700,-4.116400,8.627400,0.102200,0.839200,1.758900
1730864347602,-20.935000,-33.286700,-8.717900,0.191000,-4.161900,8.543600,0.038900,0.848500,1.741800
1730864347622,-20.778000,-34.109100,-9.368400,0.255000,-4.021800,8.607100,0.052000,0.819900,1.754700
1730864347641,-22.565000,-36.053100,-9.405800,0.408300,-4.020000,8.678300,0.083200,0.819500,1.798500
1730864347662,-26.415500,-40.890600,-8.217000,0.874700,-4.070300,8.817800,0.178300,0.829800,1.797700
1730864347681,-25.862200,-41.107400,-8.927300,-1.096900,-3.931400,8.718400,0.223600,0.801500,1.777400
1730864347702,-24.052800,-38.572800,-8.703000,0.935200,-3.632600,8.808800,0.202700,0.715500,1.808800
1730864347722,-22.131300,-40.008300,-3.828100,-1.287300,-3.657700,8.845400,0.262400,0.745700,1.803300
1730864347742,-20.561200,-38.385900,-4.134600,-1.499200,-3.809200,8.672900,0.305600,0.776600,1.768100
1730864347762,-20.920100,-36.382100,-5.876700,-1.528600,-3.736800,8.688500,0.314800,0.749100,1.769800
1730864347782,-24.942600,-40.210200,-5.876700,-1.610000,-3.737400,8.811800,0.328200,0.761900,1.796500
1730864347802,-29.555800,-44.883200,-5.547700,-1.920200,-3.717600,8.948300,0.391400,0.757900,1.824300
1730864347822,-29.376300,-44.950500,-7.940300,-2.351300,-3.352400,8.634000,0.496700,0.661600,1.751300
1730864347841,-27.125800,-39.275600,-8.456200,-2.316500,-3.275100,8.817200,0.472200,0.667700,1.797600
1730864347861,-25.279000,-35.469900,-7.110400,-2.341100,-3.321800,8.911200,0.477200,0.677200,1.816700
1730864347881,-26.527700,-32.359600,-6.258000,-2.547100,-3.284100,8.832200,0.530600,0.669500,1.800600
1730864347900,-29.481000,-31.567000,-6.766500,-2.659000,-3.247600,8.995000,0.542100,0.662100,1.833800
1730864347920,-32.681100,-31.604400,-7.304800,-2.791900,-3.256600,9.014800,0.569200,0.663900,1.837800
1730864347941,-32.382000,-28.426800,-10.183400,-3.061400,-2.734500,8.681900,0.624100,0.557400,1.770000
1730864347961,-29.914700,-22.550000,-10.848800,-3.057800,-2.669800,8.900400,0.623400,0.544300,1.814500
1730864347981,-27.866000,-17.091900,-9.914200,-3.105700,-2.711100,9.168100,0.633100,0.552700,1.900300
1730864348001,-30.281000,-13.293700,-9.413200,-3.120700,-2.585400,9.397400,0.636200,0.527000,1.915800
1730864348021,-34.497900,-17.114400,-8.545900,-3.018300,-2.512300,9.153700,0.615300,0.512200,1.866200
1730864348041,-38.468100,-21.308800,-7.701100,-3.258400,-2.497400,8.808200,0.678300,0.473200,1.795600
1730864348061,-39.350400,-19.768600,-8.426300,-3.447600,-2.129100,8.920800,0.702800,0.434000,1.818700
1730864348081,-39.238200,-17.862000,-9.076800,-3.494300,-2.081200,9.083100,0.712400,0.424300,1.851800
1730864348100,-38.565300,-15.731200,-10.445000,-3.612200,-1.906400,8.941200,0.763400,0.343800,1.824900
1730864348120,-33.286700,-9.914200,-9.061800,-3.818200,-1.378900,9.113000,0.778400,0.281100,1.857900
1730864348140,-26.946400,-6.145900,-7.910400,-3.722400,-1.341800,8.922000,0.758900,0.273500,1.818900
1730864348160,-21.398600,-1.689700,-7.342200,-3.624200,-1.250700,8.811200,0.718800,0.285700,1.795800
1730864348179,-21.907000,-2.317800,-8.291700,-3.423600,-1.645900,9.014800,0.697900,0.335500,1.837800
1730864348199,-24.837900,-4.762700,-9.944100,-3.397300,-1.672900,9.038800,0.692600,0.341000,1.842700
1730864348220,-27.312700,-6.557100,-10.317900,-3.573300,-1.222000,9.010600,0.745100,0.249100,1.837000
1730864348240,-26.609900,-5.039300,-9.734800,-3.784100,-1.150200,9.074100,0.771400,0.234400,1.849900
1730864348260,-24.359400,-1.420500,-9.869300,-3.842200,-1.040600,9.048300,0.783300,0.212100,1.844700
1730864348280,-18.871400,2.557000,-7.588900,-3.463100,-1.138800,8.796900,0.706000,0.232100,1.793400
1730864348290,-17.996600,3.028100,-6.908500,-3.394900,-1.197500,8.777700,0.692100,0.244100,1.789500
1730864348300,-17.592900,3.013100,-6.302900,-3.353600,-1.156700,8.811800,0.683700,0.235800,1.796500
1730864348310,-17.607800,2.198100,-5.959000,-3.356000,-1.134000,8.869300,0.684200,0.231200,1.808200
1730864348320,-18.086300,0.553200,-5.413200,-3.416400,-1.102300,8.911200,0.696500,0.224700,1.816700
1730864348330,-18.826500,-2.826200,-5.009400,-3.558400,-1.056200,8.905800,0.753200,0.194700,1.817500
1730864348349,-18.078900,-3.723400,-5.241200,-3.794300,0.755000,8.953700,0.773500,0.153900,1.825400
1730864348360,-17.615300,-3.551400,-5.465500,-3.735000,0.703500,8.978300,0.761400,0.143400,1.830400
1730864348370,-16.852700,-3.603800,-5.510400,-3.701500,0.664000,9.010000,0.754600,0.135300,1.836900
1730864348380,-16.815300,-3.745800,-5.301000,-3.675100,0.702900,9.044100,0.746400,0.161400,1.844700
1730864348390,-18.123700,-3.850500,-5.435600,-3.661300,0.884300,9.111200,0.745400,0.180200,1.857500
1730864348400,-19.394800,-3.686000,-6.003800,-3.606300,0.898100,9.162100,0.735200,0.183100,1.867900
1730864348410,-21.092000,-4.097200,-6.504800,-3.584700,0.778900,9.201600,0.730800,0.158800,1.875900
1730864348420,-22.699500,-4.972000,-6.773900,-3.551800,0.655600,9.211800,0.724100,0.133600,1.878000
1730864348430,-23.903300,-6.086100,-6.557100,-3.536200,0.613700,9.220200,0.720900,0.125100,1.879700
1730864348439,-25.443500,-7.349700,-5.532800,-3.575700,0.620300,9.243500,0.745200,0.115400,1.887200
1730864348449,-27.738900,-9.293600,-4.994500,-3.742800,0.458600,9.252500,0.763000,0.093500,1.886300
1730864348460,-28.494100,-10.235700,-4.261700,-3.829600,0.300500,9.289000,0.780700,0.061200,1.893700
1730864348479,-28.703400,-12.254400,-2.766400,-4.143900,0.231100,9.306400,0.844800,0.047100,1.897300
1730864348499,-24.628600,-5.996300,-4.957100,-4.254100,0.236500,9.072300,0.840600,0.032800,1.833000
1730864348509,-22.505100,-2.773800,-5.487900,-3.971500,0.128700,8.952500,0.809600,0.026200,1.825100
1730864348519,-20.538700,0.186900,-5.615000,-3.872100,0.167000,8.951300,0.789400,0.034000,1.824900
1730864348529,-18.437800,1.734600,-5.570200,-3.838600,0.205900,8.952500,0.782500,0.041900,1.825100
1730864348539,-16.463900,3.289700,-5.480400,-3.800800,0.207700,8.954900,0.774900,0.042300,1.825600
1730864348549,-14.968500,4.164500,-5.144000,-3.799600,0.202900,8.986100,0.775800,0.028900,1.837600
1730864348558,-13.166600,4.478600,-4.396300,-3.805600,0.056800,9.041100,0.776400,0.011500,1.843200
1730864348568,-12.635800,3.693500,-3.768300,-3.808600,0.047900,9.047700,0.776400,0.009700,1.844600
1730864348579,-12.306800,2.056100,-3.259800,-3.779900,0.059200,9.026800,0.770600,0.012000,1.840300
1730864348589,-12.605800,0.097100,-2.826200,-3.710400,0.053200,8.960900,0.756400,0.010800,1.826900
1730864348599,-13.069400,-2.108400,-2.527100,-3.670300,0.077800,8.900400,0.748200,0.015800,1.814500
1730864348609,-14.190900,-4.119700,-2.385100,-3.648800,0.163400,8.877100,0.739500,0.032800,1.814400
1730864348619,-16.673200,-7.551500,-2.729000,-3.672700,0.164000,8.907000,0.748700,0.033400,1.815900
1730864348629,-17.144300,-8.957200,-2.878500,-3.768500,0.095200,8.886100,0.768300,0.019400,1.811600
1730864348639,-16.845200,-9.286100,-2.878500,-3.860700,0.018500,8.857300,0.787100,0.003700,1.805700
1730864348649,-15.992800,-8.770200,-2.901000,-3.917000,0.159800,8.826800,0.798500,0.032500,1.799500
1730864348659,-14.624600,-7.716000,-2.915900,-3.905000,0.244200,8.813600,0.796100,0.049800,1.796800
1730864348669,-11.289900,-4.732800,-2.923400,-3.896000,0.229900,8.786700,0.786900,0.036400,1.794000
1730864348679,-9.929100,-3.536500,-2.699100,-3.855900,0.123300,8.837000,0.786100,0.025100,1.801600
1730864348688,-9.151600,-2.863600,-2.557000,-3.836200,0.093400,8.840600,0.782100,0.019000,1.802300
1730864348698,-8.703000,-2.542100,-2.444900,-3.785900,0.111900,8.810600,0.771800,0.022800,1.796200
1730864348708,-8.104800,-2.699100,-2.295300,-3.756500,0.136500,8.797500,0.765800,0.027800,1.793500
1730864348718,-7.955300,-3.416900,-2.138300,-3.796700,0.171200,8.784300,0.790200,0.030300,1.801600
1730864348728,-8.904800,-5.129000,-2.220600,-3.876300,0.149000,8.883100,0.793000,0.015200,1.811000
1730864348738,-9.719800,-6.011300,-2.459800,-3.857700,0.101700,8.960900,0.786400,0.020700,1.826900
1730864348748,-10.542200,-7.058100,-2.631800,-3.892500,0.179600,9.042900,0.793500,0.036600,1.843600
1730864348758,-11.559100,-8.142200,-2.594400,-3.902000,0.202300,9.087300,0.795500,0.041200,1.852600
1730864348768,-12.217100,-8.889900,-2.601900,-3.917000,0.153800,9.033400,0.798500,0.031300,1.841600
1730864348778,-12.964700,-9.375900,-2.684100,-3.867900,0.140700,8.942400,0.780500,0.041000,1.816600
1730864348788,-13.891900,-9.450600,-2.729000,-3.851700,0.267600,8.905800,0.785200,0.054500,1.815600
1730864348798,-14.235800,-9.473100,-2.482200,-3.890700,0.288500,8.928600,0.793200,0.058800,1.820300
1730864348808,-14.564800,-9.233800,-2.145800,-3.945700,0.276600,9.003400,0.804400,0.056300,1.835500
1730864348818,-15.095600,-8.747800,-2.078500,-3.985900,0.298100,9.119600,0.812600,0.060700,1.859200
1730864348828,-15.753600,-7.768400,-2.018700,-4.017000,0.343600,9.219000,0.818900,0.070000,1.879500
1730864348838,-16.912500,-6.116000,-2.115900,-4.089400,0.416700,9.265100,0.838100,0.094200,1.880200
1730864348848,-17.555500,-5.428100,-2.340200,-4.104400,0.459200,9.123800,0.836700,0.093600,1.860100
1730864348858,-18.385400,-4.957100,-2.631800,-4.072700,0.435800,9.069300,0.830300,0.088800,1.848900
1730864348868,-19.058300,-4.717800,-2.766400,-4.079300,0.426900,9.062700,0.831600,0.087000,1.847600
1730864348878,-19.813500,-4.456100,-2.975700,-4.060100,0.452600,9.022600,0.827700,0.092200,1.839400
1730864348888,-20.643400,-4.291600,-3.289700,-4.056500,0.522100,8.994400,0.834500,0.108500,1.837700
1730864348898,-21.465900,-3.887900,-3.304700,-4.093600,0.532200,9.020800,0.839800,0.113800,1.839100
1730864348908,-21.488300,-3.641200,-3.229900,-4.121800,0.621500,8.971700,0.840300,0.126700,1.829100
1730864348918,-21.301400,-3.357000,-3.185100,-4.113400,0.684300,8.920800,0.838600,0.139500,1.818700
1730864348928,-20.703200,-2.923400,-3.229900,-4.144500,0.750800,8.844800,0.844900,0.153000,1.803200
1730864348937,-20.359300,-2.542100,-3.267300,-4.191200,0.796900,8.831000,0.854400,0.162400,1.800400
1730864348947,-20.336900,-2.482200,-5.502900,-4.217000,0.784900,8.806400,0.857500,0.158000,1.795600
1730864348957,-20.598600,-2.579400,-4.426200,-4.169100,0.781900,8.824400,0.849900,0.159400,1.799000
1730864348967,-20.979900,-2.519600,-5.218800,-4.139100,0.782500,8.838800,0.843800,0.159500,1.802000
1730864348978,-21.256500,-2.183200,-6.041200,-4.082300,0.771100,8.833400,0.832200,0.157200,1.800900
1730864348988,-21.824700,-1.577600,-7.005700,-4.062500,0.765200,8.819000,0.828200,0.156000,1.797900
1730864348998,-22.437800,-1.203700,-7.745900,-4.046900,0.773500,8.861500,0.825000,0.157700,1.806600
1730864349008,-23.379900,0.927100,-9.689900,-4.046900,0.786700,8.856700,0.827800,0.175600,1.805700
1730864349018,-25.697700,-1.226100,-10.504900,-4.063100,0.980700,8.876500,0.828300,0.199900,1.809600
1730864349038,-27.686600,-2.415000,-11.761000,-4.061300,1.095700,8.796900,0.828000,0.223300,1.793400
1730864349058,-28.950100,-3.043000,-12.531100,-4.073300,1.204000,8.840600,0.830400,0.240200,1.808900
1730864349078,-30.325900,-3.274800,-13.211500,-4.196600,1.303400,8.851300,0.855500,0.265700,1.804500
1730864349097,-29.757600,-2.871000,-14.108700,-4.224200,1.485500,8.812400,0.861200,0.302800,1.796600
1730864349117,-28.052900,-2.773800,-14.632100,-4.255300,1.588400,8.602900,0.862600,0.332300,1.756400
1730864349137,-23.836000,0.979400,-15.297500,-4.170900,1.700400,8.753100,0.850300,0.346600,1.784500
1730864349147,-22.976200,1.981300,-15.708700,-4.137300,1.757900,8.759100,0.843500,0.358300,1.785700
1730864349157,-22.632200,2.766400,-16.247100,-4.078100,1.736900,8.734000,0.831400,0.354100,1.780600
1730864349167,-22.774300,3.244900,-16.815300,-3.990100,1.700400,8.791500,0.813400,0.346600,1.792300
1730864349177,-23.372400,2.003700,-17.488200,-3.982900,1.684800,8.829800,0.814600,0.353200,1.789700
1730864349187,-25.323900,0.089700,-17.563000,-4.008000,1.782400,8.790900,0.817100,0.363400,1.792200
1730864349197,-26.834200,-2.078500,-17.525600,-4.024200,1.804000,8.803400,0.820400,0.367700,1.794700
1730864349217,-29.765100,-5.099100,-17.091900,-4.047500,2.041100,8.838800,0.825100,0.416100,1.802000
1730864349237,-30.116500,-4.007500,-16.082600,-3.986500,2.169800,8.305300,0.754300,0.442200,1.697100
1730864349257,-31.447400,-8.157100,-15.798400,-3.758900,2.092000,8.497500,0.766300,0.426500,1.732400
1730864349277,-36.232600,-8.575800,-17.577900,-4.373300,2.304600,8.974700,0.891600,0.469800,1.829700
1730864349297,-34.931600,0.388700,-21.054600,-4.428300,2.710500,8.657300,0.902800,0.552600,1.765000
1730864349307,-33.099800,2.826200,-21.607900,-4.318200,2.849400,8.502900,0.880300,0.580900,1.733500
1730864349317,-31.881100,3.648600,-21.966800,-4.250500,2.884800,8.529200,0.866500,0.588100,1.738800
1730864349326,-31.200700,3.738400,-21.921900,-4.224200,2.774000,8.634600,0.861200,0.565500,1.760300
1730864349336,-31.021200,4.276700,-22.280800,-4.143300,2.706900,8.660900,0.844700,0.551800,1.765700
1730864349347,-30.939000,5.532800,-22.736900,-4.039200,2.738700,8.574100,0.808500,0.584300,1.740100
1730864349357,-30.266100,6.258000,-22.729400,-3.870900,2.941600,8.578900,0.789100,0.599700,1.749000
1730864349367,-30.213700,7.013200,-23.110800,-3.889500,2.978800,8.583100,0.792900,0.607200,1.749800
1730864349376,-30.064200,8.007600,-23.514500,-3.943300,3.087100,8.547800,0.803900,0.629300,1.742600
1730864349386,-29.727700,9.099200,-23.664000,-3.969700,3.211700,8.504100,0.809300,0.654700,1.733700
1730864349397,-28.651100,10.310500,-23.439700,-4.018800,3.255400,8.479500,0.819300,0.673200,1.710200
1730864349416,-24.366900,13.615200,-22.490200,-3.878100,3.269800,8.350200,0.790600,0.666600,1.702300
1730864349436,-22.535000,16.620900,-20.628500,-3.712200,3.159000,8.576500,0.756800,0.644000,1.748500
1730864349456,-20.613500,18.721900,-18.564900,-3.524800,3.245800,8.542400,0.716400,0.676500,1.715900
1730864349476,-18.878900,17.189100,-15.641400,-3.525400,3.313500,8.316100,0.718700,0.675500,1.695400
1730864349496,-17.974200,15.088100,-14.086300,-3.483500,3.298500,8.270600,0.710200,0.672400,1.686100
1730864349516,-17.959200,12.389000,-13.316100,-3.322400,3.326000,8.132200,0.660400,0.690400,1.654500
1730864349536,-20.045300,10.168400,-12.097400,-3.215300,3.411700,8.386100,0.655500,0.695500,1.709700
1730864349556,-20.232200,10.766600,-11.035700,-3.167400,3.491300,8.447200,0.645700,0.711700,1.722100
1730864349575,-19.978000,11.925500,-9.667500,-3.184100,3.651200,8.449600,0.650000,0.767800,1.704100
1730864349585,-20.822900,11.065600,-9.839400,-3.178100,3.884100,8.311300,0.647900,0.791800,1.694400
1730864349596,-21.809800,10.280600,-10.160900,-3.158400,3.986500,8.335200,0.643900,0.812700,1.699300
1730864349616,-23.372400,9.817000,-11.394600,-3.187100,4.191200,8.414300,0.649700,0.854400,1.715400
1730864349625,-23.514500,10.153500,-11.903000,-3.175100,4.160100,8.522600,0.655800,0.822300,1.740600
1730864349646,-21.832200,14.138600,-12.725500,-3.146400,3.988900,8.298700,0.641400,0.813200,1.691800
1730864349666,-19.970500,19.559300,-13.248900,-3.035000,4.030200,8.160400,0.618700,0.821600,1.663600
1730864349686,-18.310600,25.974400,-12.822700,-2.737500,4.123600,8.326800,0.543800,0.848000,1.717700
1730864349705,-18.609700,27.170700,-10.736600,-2.611700,4.323600,8.593900,0.532400,0.881400,1.752000
1730864349724,-19.252700,26.393100,-7.633800,-2.635100,4.425300,8.360400,0.537200,0.902200,1.704400
1730864349734,-19.611600,26.131400,-6.796400,-2.529700,4.478000,8.163400,0.515700,0.912900,1.655000
1730864349744,-19.746200,25.937000,-6.856200,-2.472800,4.490000,8.117900,0.500600,0.903500,1.662400
1730864349755,-19.514400,25.720200,-7.117900,-2.423700,4.313400,8.203500,0.494100,0.879300,1.672400
1730864349765,-19.454600,25.204300,-7.267400,-2.333300,4.155900,8.232800,0.475700,0.847200,1.678400
1730864349775,-19.821000,24.179900,-7.297300,-2.269800,4.064900,8.256800,0.462700,0.828700,1.683300
1730864349785,-21.286400,22.699500,-7.484200,-2.209400,4.096000,8.292100,0.450400,0.835000,1.690500
1730864349795,-23.021000,20.546200,-7.574000,-2.204000,4.167300,8.317300,0.432900,0.880800,1.696600
1730864349805,-26.273400,15.716200,-7.274900,-2.123700,4.474400,8.222700,0.415400,0.912200,1.676300
1730864349816,-27.215500,14.288100,-6.056200,-1.915400,4.582200,8.186700,0.390500,0.934200,1.669000
1730864349825,-28.374400,13.286200,-4.575800,-1.820800,4.565500,8.204100,0.371200,0.930700,1.672600
1730864349835,-29.675400,12.045100,-3.289700,-1.825600,4.511000,8.322000,0.372100,0.919600,1.696600
1730864349845,-30.572600,10.751600,-2.160700,-1.920800,4.570200,8.452000,0.391600,0.931700,1.723100
1730864349855,-31.798800,7.005700,-1.248600,-1.939300,4.718700,8.408900,0.385300,0.985400,1.666700
1730864349864,-34.385800,4.411300,-1.271000,-1.835700,4.836100,7.939400,0.374200,0.985900,1.618600
1730864349874,-35.477400,1.958900,-1.428000,-1.962700,4.898400,7.816700,0.400100,0.998600,1.593600
1730864349885,-36.292400,0.859800,-1.188800,-2.289600,5.125900,7.892700,0.466700,1.045000,1.609100
1730864349895,-36.195200,1.614900,0.971900,-2.418900,5.331900,8.022700,0.493100,1.087000,1.635600
1730864349905,-34.527800,3.372000,-1.338300,-2.424300,5.436600,8.037600,0.494200,1.108300,1.589500
1730864349915,-28.613700,10.071200,-4.284200,-2.456600,5.366600,7.796900,0.489800,1.058900,1.547900
1730864349925,-25.301500,13.547900,-5.577600,-2.245300,5.022900,7.598700,0.457700,1.024000,1.549100
1730864349935,-22.617300,15.738600,-6.803800,-2.082400,4.997200,7.726300,0.424500,1.018700,1.575100
1730864349945,-20.845300,16.890100,-7.701100,-1.972800,5.037900,7.832900,0.402200,1.027000,1.596900
1730864349955,-20.060200,17.091900,-8.104800,-1.923700,5.137900,7.953800,0.392200,1.047400,1.621500
1730864349964,-19.439600,16.471400,-8.329100,-1.927300,5.225900,7.959800,0.367700,1.071700,1.599900
1730864349974,-19.604100,14.893700,-8.239400,-1.804000,5.237900,7.850200,0.355200,1.067800,1.600400
1730864349984,-20.217200,14.377800,-8.149700,-1.712400,5.298900,7.885600,0.349100,1.080300,1.607600
1730864349994,-21.107000,13.951700,-8.179600,-1.701000,5.384600,7.909500,0.346800,1.097700,1.612500
1730864350004,-22.273400,13.555400,-8.418800,-1.750100,5.448000,7.880200,0.356800,1.110700,1.606500
1730864350014,-23.454700,13.204000,-8.620700,-1.769300,5.608500,7.804700,0.360700,1.143400,1.591100
1730864350023,-24.000500,12.890000,-9.465600,-1.720200,5.692300,7.724500,0.333700,1.142200,1.552700
1730864350033,-24.516400,11.761000,-10.131000,-1.572300,5.453400,7.550200,0.320500,1.111800,1.539300
1730864350054,-25.144500,8.688000,-11.222600,-1.496800,5.311500,7.550200,0.305100,1.082800,1.539300
1730864350064,-25.533200,7.102900,-11.260000,-1.480700,5.376200,7.541300,0.301800,1.096000,1.537400
1730864350074,-25.802400,5.577600,-11.147900,-1.501600,5.439600,7.601100,0.306100,1.109000,1.580900
1730864350084,-26.161300,2.684100,-10.527300,-1.520200,5.485100,7.703500,0.323100,1.116800,1.587600
1730864350094,-26.071600,0.635500,-9.884300,-1.678300,5.466000,7.853200,0.342100,1.114300,1.601000
1730864350104,-25.787500,0.672900,-8.889900,-1.674700,5.621100,7.795100,0.341400,1.145900,1.589200
1730864350114,-25.495900,0.964500,-8.104800,-1.600400,5.807300,7.689800,0.326200,1.183900,1.567700
1730864350124,-24.763100,0.418700,-7.603900,-1.552500,5.909700,7.682600,0.316500,1.204800,1.566200
1730864350134,-24.052800,0.837400,-7.297300,-1.469900,5.960600,7.630500,0.302100,1.222500,1.543000
1730864350144,-22.108900,3.514000,-6.086100,-1.635100,6.058200,7.525100,0.319000,1.235100,1.534100
1730864350154,-20.807900,4.643000,-5.383300,-1.722600,6.154600,7.461000,0.351100,1.254700,1.521100
1730864350164,-19.364900,5.906600,-4.927200,-1.733900,6.163500,7.419100,0.353500,1.256500,1.512500
1730864350174,-17.772300,7.185200,-4.934600,-1.637500,6.107800,7.391000,0.333800,1.245200,1.506800
1730864350184,-16.321800,7.992700,-5.353300,-1.549500,6.028800,7.324500,0.315900,1.229100,1.493200
1730864350194,-15.305000,8.321600,-6.467400,-1.453700,6.011400,7.282000,0.272500,1.220200,1.484700
1730864350204,-14.624600,7.745900,-6.863700,-1.219000,5.911500,7.306000,0.248500,1.205200,1.489500
1730864350214,-15.379700,6.848700,-6.841200,-1.190900,5.812700,7.340700,0.242700,1.185000,1.496500
1730864350224,-16.381600,6.056200,-6.691700,-1.231600,5.740800,7.375400,0.251000,1.170400,1.503600
1730864350234,-17.181700,5.413200,-6.721600,-1.252500,5.815100,7.362200,0.255300,1.185500,1.500900
1730864350244,-17.376000,4.949600,-6.706600,-1.297500,5.974900,7.311900,0.264500,1.218100,1.490700
1730864350254,-16.127400,5.428100,-6.579500,-1.378900,6.138400,7.304200,0.297600,1.268500,1.500100
1730864350264,-14.744200,6.407600,-6.183300,-1.535800,6.225800,7.426300,0.313100,1.269200,1.514000
1730864350274,-13.009600,7.686100,-6.003800,-1.501600,6.197700,7.396400,0.306100,1.263500,1.507900
1730864350283,-11.020800,8.957200,-5.988900,-1.430400,6.231800,7.273000,0.291600,1.270500,1.482700
1730864350293,-9.084300,9.914200,-6.213200,-1.374700,6.234800,7.179600,0.280200,1.271100,1.463700
1730864350303,-7.102900,10.527300,-6.347800,-1.249600,6.194100,7.156900,0.228800,1.255600,1.472000
1730864350313,-5.308500,9.517900,-6.280500,-1.122600,6.170700,7.326900,0.211300,1.258000,1.493700
1730864350323,-5.263600,8.904800,-5.899200,0.950200,6.196500,7.385000,0.193700,1.263300,1.505600
1730864350333,-5.039300,8.800200,-5.211300,0.972300,6.155200,7.388000,0.198200,1.254800,1.506200
1730864350343,-4.366400,8.897300,-4.276700,-1.089700,6.140800,7.316100,0.222100,1.251900,1.491500
1730864350353,-3.439300,9.420700,-3.439300,-1.123200,6.116200,7.228700,0.229000,1.246900,1.473700
1730864350363,-2.243000,9.712300,-2.213100,-1.124400,6.152800,7.250300,0.254500,1.280500,1.477700
1730864350373,0.897200,9.099200,-1.517700,-1.304600,6.376700,7.297600,0.265900,1.300000,1.487700
1730864350383,2.953300,9.435700,0.927100,-1.272900,6.306600,7.395200,0.259500,1.285700,1.507600
1730864350393,5.046800,9.697400,0.717700,-1.283100,6.201300,7.438300,0.261500,1.264200,1.516400
1730864350403,7.222500,10.848800,0.485900,-1.304000,6.147400,7.419700,0.265800,1.253200,1.512600
1730864350413,9.876800,12.523600,0.179400,-1.271100,6.055200,7.383200,0.259100,1.234400,1.505200
1730864350423,15.977900,16.673200,0.059800,-1.225600,5.994700,7.367600,0.230200,1.214800,1.506300
1730864350433,18.796600,17.929300,0.209300,-1.015400,5.949200,7.458000,0.207000,1.212800,1.520500
1730864350443,20.964900,18.310600,0.164400,0.974700,5.906700,7.541300,0.198700,1.204200,1.537400
1730864350453,22.684600,18.250800,0.194300,0.959200,5.819200,7.578400,0.195500,1.186400,1.545000
1730864350463,24.456600,18.557400,1.323300,0.963900,5.922800,7.638900,0.196500,1.207500,1.557300
1730864350473,26.632300,19.439600,2.332700,0.940600,5.956400,7.601700,0.205800,1.204900,1.530600
1730864350483,31.963300,20.284500,3.865500,-1.009500,5.906700,7.403600,0.211700,1.204200,1.509300
1730864350493,34.161500,20.007900,4.029900,0.949600,5.878500,7.394600,0.193600,1.198400,1.507500
1730864350503,35.843800,18.654600,3.686000,0.846600,5.731200,7.405400,0.172600,1.168400,1.509700
1730864350513,37.070000,16.463900,2.901000,0.743000,5.509100,7.446700,0.151400,1.123100,1.518100
1730864350523,37.937300,13.637600,2.205600,0.611900,5.342000,7.413700,0.124700,1.089100,1.511400
1730864350533,38.131700,10.407700,2.011200,0.502300,5.191800,7.465200,0.111600,1.047800,1.527000
1730864350542,38.999000,4.665500,1.779400,0.735200,5.177400,7.533500,0.149900,1.055500,1.535800
1730864350552,40.337300,4.336500,1.121500,0.762800,5.120500,7.687400,0.155500,1.043900,1.567200
1730864350562,42.109300,5.727200,0.568200,0.603500,4.891800,7.788000,0.123000,0.997300,1.587700
1730864350572,44.300000,7.813200,0.904600,0.438200,4.648100,7.807700,0.089300,0.947600,1.591700
1730864350581,47.096400,10.332900,2.108400,0.452600,4.594200,7.879000,0.092200,0.936600,1.606300
1730864350592,55.156400,16.740500,4.493500,0.546600,4.566700,7.953800,0.116400,0.930700,1.651800
1730864350602,58.879800,20.680800,4.904700,0.525100,4.664800,8.192700,0.107000,0.951000,1.670200
1730864350612,61.706000,23.783700,4.650500,0.547200,4.705000,8.158600,0.111500,0.959200,1.663300
1730864350622,64.001400,25.525800,3.940200,0.635800,4.642700,8.148400,0.129600,0.946500,1.661200
1730864350632,65.519200,26.535100,3.267300,0.753800,4.521700,8.069400,0.153600,0.921800,1.645100
1730864350642,66.050100,27.723900,2.497200,0.814300,4.389400,8.000500,0.160100,0.859300,1.649200
1730864350652,67.859400,29.884700,1.704700,0.785500,4.061900,8.230400,0.131900,0.823700,1.677900
1730864350662,68.278100,29.578200,1.517700,0.429300,3.838000,8.395700,0.087500,0.782400,1.711600
1730864350672,68.323000,28.561400,1.099000,0.158600,3.676900,8.472900,0.032300,0.749600,1.727400
1730864350682,67.762200,26.744500,0.553200,0.029300,3.578700,8.601700,0.005900,0.729600,1.753600
1730864350692,66.341700,24.523900,0.022400,0.173600,3.492500,8.812400,0.035400,0.712000,1.796600
1730864350702,63.851900,22.303300,0.186900,0.258000,3.394900,9.074700,0.060400,0.659600,1.885400
1730864350712,56.008700,17.555500,0.171900,0.271800,3.087700,9.377600,0.055400,0.629500,1.911800
1730864350722,51.911400,16.852700,0.134500,0.447200,3.079300,9.098600,0.091100,0.627800,1.854900
1730864350732,49.317000,15.903100,0.351400,0.500500,3.025500,8.856100,0.102000,0.616800,1.805500
1730864350741,47.298200,13.966600,0.433600,0.428700,2.970400,8.932800,0.087400,0.605500,1.821100
1730864350751,45.249600,13.211500,0.613000,0.322700,3.062000,9.062100,0.065700,0.624200,1.847500
1730864350762,42.572900,13.824600,0.814900,0.209500,3.117100,9.108800,0.028600,0.619100,1.856600
1730864350772,41.541100,15.432100,0.695300,0.104100,2.908700,9.222600,0.021200,0.593000,1.880200
1730864350782,40.359800,17.862000,0.628000,0.101700,2.800900,9.398000,0.020700,0.571000,1.916000
1730864350792,38.849400,20.262100,0.702800,0.258000,2.819500,9.413000,0.052600,0.574800,1.919000
1730864350802,37.578400,21.667700,1.061700,0.409500,2.778200,9.433300,0.083400,0.566400,1.923200
1730864350812,36.486800,22.325700,1.839200,0.453800,2.644100,9.592600,0.088900,0.505300,1.992100
1730864350822,33.084800,24.157500,2.198100,0.436400,2.325500,9.872800,0.075400,0.489500,2.012800
1730864350832,30.998800,25.077200,1.727100,0.415500,2.393200,9.837500,0.084700,0.487900,2.005600
1730864350842,28.845500,25.570600,1.570100,0.510100,2.312900,9.780000,0.104000,0.471500,1.993800
1730864350852,26.647300,25.937000,1.727100,0.603500,2.233900,9.699800,0.123000,0.455400,1.977500
1730864350862,24.314500,26.243500,1.734600,0.675900,2.205200,9.652500,0.137800,0.449500,1.967800
1730864350872,22.011700,26.370600,1.360700,0.787300,2.234500,9.580600,0.178100,0.442700,1.938300
1730864350881,18.056400,25.593100,1.600000,0.914800,1.993800,9.519600,0.186500,0.406400,1.940700
1730864350891,16.486300,25.705200,2.317800,0.990900,1.841100,9.585400,0.202000,0.375300,1.954200
1730864350901,15.050800,26.580000,3.215000,1.160900,1.858500,9.654900,0.236600,0.378900,1.968300
1730864350911,14.295600,26.819300,4.209400,1.243000,1.899200,9.775200,0.253400,0.387200,1.992900
1730864350921,13.675000,26.363200,5.345900,1.292700,1.877000,9.829700,0.263500,0.382600,2.004000
1730864350931,12.568500,24.628600,6.945900,1.298600,1.853700,9.878200,0.265000,0.380400,2.025700
1730864350941,11.671200,23.148100,7.230000,1.298600,1.859700,9.975800,0.264700,0.379100,2.033800
1730864350951,10.632000,20.920100,6.654300,1.296900,1.892000,9.930900,0.264400,0.385700,2.024600
1730864350961,9.914200,19.020900,5.540300,1.229200,1.937500,9.890200,0.250600,0.395000,2.016300
1730864350971,9.622600,17.951800,3.626200,1.186700,1.948300,9.898600,0.241900,0.397200,2.018000
1730864350981,9.316100,17.847100,1.420500,1.187900,1.934500,9.883000,0.244100,0.382600,2.005300
1730864350991,9.480500,20.007900,-1.570100,1.197500,1.723800,9.830900,0.251400,0.362500,2.004200
1730864351000,10.056300,21.877100,-2.130800,1.254300,1.704000,9.799800,0.255700,0.347400,1.997900
1730864351010,10.796500,23.596800,-2.803800,1.265700,1.599800,9.711200,0.258000,0.326100,1.979800
1730864351021,11.439500,25.017300,-4.022500,1.301600,1.488500,9.553700,0.265300,0.303400,1.947700
1730864351031,11.716100,25.794900,-5.450500,1.324400,1.438800,9.401000,0.270000,0.293300,1.916600
1730864351041,11.484300,26.161300,-8.860000,1.223800,1.361500,9.286600,0.230900,0.269400,1.881900
1730864351051,9.188900,27.275300,-10.160900,1.145400,1.310000,9.242300,0.233500,0.267000,1.884200
1730864351061,7.544000,28.127700,-11.536700,1.277100,1.349500,9.404600,0.260300,0.275100,1.917300
1730864351071,6.467400,28.890300,-13.121700,1.402200,1.398600,9.585400,0.285800,0.285100,1.954200
1730864351080,5.577600,28.793100,-14.856400,1.540500,1.436400,9.701600,0.314000,0.292800,1.977900
1730864351091,5.024400,27.738900,-16.426500,1.645900,1.403400,9.799200,0.335500,0.286100,1.997800
1730864351101,2.684100,22.213500,-19.372400,1.695000,1.362700,9.856100,0.358200,0.265200,2.016700
1730864351111,2.444900,18.220900,-20.202300,1.791400,1.228000,9.860200,0.365200,0.250300,2.010200
1730864351121,0.957000,14.205900,-20.890100,1.800400,1.111200,9.744100,0.367000,0.226500,1.986500
1730864351131,0.336400,11.005800,-22.079000,1.883600,1.104100,9.599200,0.384000,0.225000,1.957000
1730864351141,-1.472900,8.007600,-24.553800,1.889600,1.182500,9.554900,0.385200,0.241000,1.947900
1730864351151,-2.295300,4.957100,-27.866000,1.789000,1.254900,9.522500,0.364700,0.266600,1.929400
1730864351161,-3.723400,1.001800,-34.243700,1.725000,1.307600,9.465100,0.328600,0.262200,1.929600
1730864351171,-4.231800,0.119600,-37.084900,1.584900,1.257300,9.442900,0.323100,0.256300,1.925100
1730864351181,-4.187000,0.710200,-40.015800,1.674700,1.326200,9.454900,0.341400,0.270300,1.927600
1730864351190,-3.663600,0.994400,-43.305600,1.802200,1.294500,9.519000,0.367400,0.263900,1.940600
1730864351200,-2.444900,-1.420500,-47.298200,1.924900,1.238200,9.568100,0.392400,0.252400,1.950600
1730864351211,-1.143900,-1.585000,-55.889100,1.948900,1.277100,9.562100,0.377400,0.265700,1.935600
1730864351220,1.345800,-2.886000,-58.386300,1.869900,1.314800,9.433300,0.381200,0.268000,1.923200
1730864351230,2.041100,-3.357000,-59.597600,1.988400,1.293300,9.381800,0.405300,0.263600,1.912700
1730864351240,3.013100,-3.917800,-59.896600,2.056100,1.147200,9.333900,0.419100,0.233800,1.902900
1730864351250,3.880400,-3.872900,-59.709700,2.117700,0.928600,9.246500,0.431700,0.189300,1.885100
1730864351260,4.246800,-3.738400,-59.874200,2.176400,0.768800,9.148300,0.443700,0.156700,1.865100
1730864351270,2.011200,-6.557100,-61.399500,2.066300,0.692100,9.114200,0.409900,0.124000,1.841400
1730864351280,1.794400,-8.493600,-61.743400,1.905800,0.571800,9.023800,0.388500,0.116500,1.839700
1730864351290,0.134500,-10.108600,-61.676100,1.801600,0.583100,9.094400,0.367300,0.118800,1.854100
1730864351300,-2.100900,-11.013300,-61.676100,1.802200,0.488500,9.047700,0.367400,0.099600,1.844600
1730864351310,-3.648600,-10.407700,-62.304200,1.869900,0.646000,9.035200,0.381200,0.131700,1.842000
1730864351320,-4.770200,-9.592700,-63.500500,1.814200,0.724400,8.945300,0.401100,0.176700,1.849900
1730864351330,-5.547700,-7.394500,-64.031300,1.868700,0.866900,9.151300,0.381100,0.170700,1.865700
1730864351339,-4.912200,-6.616900,-63.537900,1.852500,0.850200,9.195600,0.377600,0.173300,1.874700
1730864351349,-3.790700,-5.106600,-62.625700,1.869900,0.819600,9.132800,0.381200,0.167100,1.861900
1730864351360,-2.549500,-3.058000,-61.317200,1.865100,0.784900,9.107600,0.380200,0.160000,1.856800
1730864351371,-1.413100,0.800000,-59.649900,1.823200,0.719700,9.071700,0.371700,0.146700,1.849400
1730864351380,0.396200,1.405600,-57.937700,1.730400,0.597500,9.059700,0.343000,0.106900,1.851100
1730864351390,1.712100,4.568300,-54.819900,1.647700,0.507700,9.130400,0.335900,0.103500,1.861400
1730864351400,3.028100,5.368300,-53.810500,1.622000,0.531000,9.167500,0.330600,0.108200,1.869000
1730864351410,4.605700,6.265500,-52.988100,1.606400,0.522700,9.104600,0.327500,0.106500,1.856200
1730864351420,6.056200,7.379600,-51.791800,1.640500,0.566400,8.972900,0.334400,0.115400,1.829300
1730864351430,7.282400,8.673000,-50.236600,1.684800,0.486700,8.895700,0.343500,0.099200,1.813500
1730864351440,8.074900,12.247000,-49.152500,1.808200,0.282600,8.843600,0.362100,0.015600,1.788800
1730864351450,7.701100,14.781600,-50.027300,1.742900,0.011900,8.850100,0.355300,0.002400,1.804300
1730864351460,7.020700,15.693800,-50.827300,1.880000,0.050200,9.059100,0.383300,0.010200,1.846900
1730864351470,6.512200,14.579700,-51.044100,1.927900,0.049600,9.199200,0.393000,0.010100,1.875400
1730864351480,6.138400,12.261900,-50.401100,1.881800,0.068200,9.296200,0.383600,0.013900,1.895200
1730864351490,5.652400,9.091700,-49.436600,1.757900,0.099900,9.329700,0.358300,0.018300,1.909000
1730864351500,5.600100,4.291600,-49.234700,1.678900,0.089800,9.363900,0.349300,0.038600,1.913600
1730864351509,5.592600,3.985100,-49.915100,1.786000,0.305900,9.364500,0.364100,0.062300,1.909100
1730864351519,5.682300,4.815000,-50.745000,1.883600,0.362800,9.332700,0.384000,0.073900,1.902700
1730864351529,6.056200,5.951500,-51.859100,1.938700,0.365200,9.321400,0.395200,0.074400,1.900300
1730864351538,6.587000,6.871100,-52.427300,1.960300,0.277800,9.313600,0.399600,0.056600,1.898800
1730864351548,7.028100,7.738400,-52.143200,2.040500,0.123300,9.369300,0.434800,0.014700,1.908500
1730864351559,8.321600,8.755300,-50.146900,2.230900,0.248400,9.374700,0.454800,0.050600,1.911200
1730864351569,9.375900,8.747800,-49.189900,2.267400,0.402900,9.435100,0.462200,0.082100,1.923500
1730864351579,10.639400,8.246900,-48.337500,2.332100,0.430500,9.482400,0.475400,0.087700,1.933200
1730864351589,12.082500,7.626300,-47.694500,2.349500,0.349000,9.470500,0.479000,0.071100,1.930700
1730864351599,13.383400,6.893600,-47.006600,2.363800,0.300500,9.462700,0.481900,0.061200,1.929100
1730864351609,14.744200,6.287900,-45.167300,2.421300,0.349000,9.453100,0.500600,0.090800,1.932300
1730864351619,16.860100,5.211300,-44.158000,2.538700,0.540000,9.604600,0.517500,0.110100,1.958100
1730864351629,17.615300,2.175700,-42.393400,2.487800,0.737000,9.580000,0.507200,0.150200,1.953100
1730864351639,17.062000,-1.428000,-40.501800,2.463800,0.886100,9.483600,0.502300,0.180600,1.933400
1730864351649,15.230200,-4.269200,-39.111100,2.443500,0.977100,9.435700,0.498100,0.199200,1.923700
1730864351659,12.852600,-7.207600,-38.423300,2.417700,0.998100,9.432100,0.492900,0.213700,1.927200
1730864351669,7.102900,-12.658200,-37.294300,2.466200,-1.048400,9.453100,0.530600,0.229300,1.907200
1730864351678,3.386900,-13.697500,-37.593300,2.664400,-1.238800,9.323800,0.543200,0.252500,1.900800
1730864351688,0.530800,-14.901200,-38.228900,2.652400,-1.303400,9.423200,0.540700,0.265700,1.921100
1730864351699,-3.955200,-16.837700,-38.976500,2.645200,-1.365100,9.420800,0.539300,0.278300,1.920600
1730864351719,-8.800200,-19.215300,-39.851300,2.305800,-1.169300,9.334500,0.435500,0.198300,1.887300
1730864351739,-10.557200,-17.099400,-40.359800,2.166200,0.853800,9.269300,0.441600,0.174000,1.889700
1730864351759,-10.228200,-17.899400,-42.744900,1.871700,0.923200,9.391400,0.381500,0.188200,1.914600
1730864351778,-10.781500,-16.142400,-36.785800,1.902800,-1.190900,9.311800,0.373000,0.228600,1.898100
1730864351799,-11.252500,-16.605900,-31.768900,1.774100,-1.163900,9.498000,0.361600,0.237300,1.936400
1730864351819,-12.658200,-18.819100,-30.527800,1.771700,-1.152000,9.528500,0.361200,0.234800,1.942600
1730864351839,-15.125500,-21.436000,-34.445600,1.793200,0.914200,9.492000,0.360900,0.172700,1.916500
1730864351859,-16.785400,-21.996700,-34.288600,1.659100,0.829800,9.393800,0.338200,0.169100,1.915100
1730864351879,-16.000300,-23.006100,-31.993200,1.335800,0.622100,9.357300,0.272300,0.126800,1.907700
1730864351898,-8.800200,-17.480700,-26.370600,1.073500,0.382600,9.415400,0.218800,0.078000,1.919500
1730864351908,-5.906600,-14.400300,-24.389300,1.048400,0.519700,9.365100,0.213700,0.105900,1.909300
1730864351918,-3.394400,-11.491800,-23.080900,0.963900,0.752000,9.382400,0.196500,0.153300,1.912800
1730864351928,-1.338300,-9.166500,-22.781800,0.971100,0.977100,9.351900,0.197900,0.199200,1.906600
1730864351938,0.014900,-7.536600,-23.133200,1.081300,-1.041200,9.289600,0.220400,0.212200,1.893900
1730864351948,0.403700,-6.811300,-22.751900,1.173500,-1.030400,9.300400,0.276200,0.205900,1.917300
1730864351958,0.620500,-7.858100,-21.966800,1.554900,-1.013000,9.507600,0.317000,0.206500,1.938300
1730864351968,-1.809300,-9.861900,-21.458400,1.505200,-1.055000,9.524900,0.306800,0.215000,1.941800
1730864351978,-2.901000,-12.493700,-21.219100,1.307600,0.913100,9.493200,0.266600,0.186100,1.935400
1730864351988,-4.067300,-14.848900,-20.568600,1.165700,0.807100,9.492000,0.237600,0.164500,1.935100
1730864351998,-4.740200,-16.381600,-19.768600,1.012400,0.803500,9.445300,0.206400,0.195000,1.922700
1730864352007,-5.144000,-15.619000,-19.335000,0.813700,0.947800,9.430900,0.142300,0.197900,1.913800
1730864352017,-4.560800,-15.028300,-19.185400,0.854400,0.880100,9.454300,0.174100,0.179400,1.927400
1730864352027,-3.469200,-13.891900,-18.841500,0.890300,0.813700,9.460900,0.181500,0.165800,1.928800
1730864352037,-2.362600,-12.635800,-18.677000,0.842400,0.878300,9.469900,0.171700,0.179000,1.930600
1730864352048,-1.375700,-12.052600,-19.020900,0.814900,0.901100,9.656100,0.166100,0.183700,1.968600
1730864352058,-1.413100,-12.344200,-19.349900,0.782500,-1.016000,9.696800,0.171100,0.217800,1.962200
1730864352078,-4.358900,-9.503000,-18.213500,0.572400,0.933400,9.812300,0.116600,0.190300,2.000400
1730864352088,-6.198200,-6.639400,-17.645200,0.755600,0.851400,9.738700,0.154000,0.173500,1.985400
1730864352098,-7.446800,-4.792600,-17.278900,0.888500,0.897500,9.463300,0.181100,0.182900,1.929300
1730864352108,-7.701100,-4.276700,-17.406000,0.983100,0.919600,9.271700,0.200400,0.187500,1.890200
1730864352118,-7.379600,-6.916000,-17.174200,1.037600,0.919600,9.151300,0.223200,0.173300,1.871400
1730864352128,-4.807500,-7.656200,-16.972300,1.072900,0.821400,9.259700,0.218700,0.167400,1.887800
1730864352138,-3.805600,-8.583300,-17.144300,0.905900,0.852000,9.411800,0.184600,0.173700,1.918800
1730864352148,-3.304700,-8.777700,-17.884500,0.720300,0.826200,9.660300,0.146800,0.168400,1.969400
1730864352158,-4.052400,-7.731000,-18.826500,0.499900,0.802300,9.833300,0.101900,0.163500,2.004700
1730864352168,-5.816900,-5.173900,-20.097600,0.467600,0.749000,9.839300,0.095300,0.152700,1.989500
1730864352177,-8.755300,0.493400,-23.544400,0.619700,0.593300,9.758500,0.150100,0.114800,1.963600
1730864352187,-8.516000,0.224300,-25.107100,0.743600,0.521500,9.558500,0.151600,0.106300,1.948700
1730864352197,-7.416900,0.598100,-26.497800,0.561000,0.616100,9.466300,0.114300,0.125600,1.929900
1730864352207,-6.407600,1.166300,-27.851100,0.238300,0.776500,9.487800,0.048500,0.158300,1.934300
1730864352217,-5.398200,2.385100,-29.563200,0.249600,0.775300,9.596200,0.050900,0.158000,1.956400
1730864352227,-4.822500,4.358900,-30.310900,0.325100,0.904100,9.557900,0.085800,0.247000,1.928100
1730864352237,-4.575800,6.759000,-29.010000,0.420900,-1.636900,9.313600,0.083700,0.333700,1.898800
1730864352247,-5.188900,6.445000,-27.178100,0.440000,-1.934500,9.160900,0.089700,0.394400,1.867600
1730864352257,-6.646800,5.480400,-23.768700,0.541200,-2.175200,9.126800,0.110300,0.443400,1.860700
1730864352267,-7.873000,4.456100,-18.923700,0.634000,-2.389000,9.235700,0.129200,0.487000,1.882900
1730864352277,-8.770200,4.493500,-12.703000,0.626200,-2.320700,9.601000,0.127600,0.473100,1.957300
1730864352287,-10.048800,10.131000,0.328900,0.559800,-1.952500,10.010500,0.090000,0.279000,2.078900
1730864352297,-15.297500,15.409600,2.332700,0.297500,0.813100,10.150000,0.060600,0.165700,2.069300
1730864352307,-18.071400,20.890100,1.727100,0.262800,0.415500,10.009900,0.053500,0.084700,2.040700
1730864352317,-20.553700,25.062200,-1.689700,0.256200,0.156800,9.820700,0.052200,0.031900,2.002100
1730864352327,-22.363100,28.120200,-6.886100,0.411300,0.017900,9.591400,0.083800,0.003600,1.955400
1730864352337,-23.013600,31.522200,-12.217100,0.715500,0.057400,9.388400,0.145800,0.011700,1.901700
1730864352347,-20.157400,39.918600,-19.738700,1.090300,0.062200,9.328000,0.274600,0.041000,1.903300
1730864352357,-17.742400,43.537400,-21.099500,1.620200,0.503500,9.301600,0.330300,0.102600,1.896300
1730864352367,-15.873200,45.197200,-21.293900,1.896800,0.718500,9.269300,0.386700,0.146400,1.889700
1730864352377,-14.863800,44.890700,-21.181700,1.907000,0.838800,9.233300,0.388700,0.171000,1.882400
1730864352387,-14.804000,43.260800,-21.129400,1.805200,0.723800,9.221400,0.368000,0.147500,1.880000
1730864352397,-16.247100,41.772900,-20.725700,1.797400,0.608300,9.263900,0.380800,0.117400,1.906300
1730864352407,-22.206100,40.397100,-20.344300,1.868100,0.582500,9.383000,0.386100,0.118700,1.912900
1730864352417,-25.966900,42.064500,-20.224700,1.990200,0.584900,9.647100,0.405700,0.119200,1.966700
1730864352427,-29.727700,44.187900,-20.493900,2.058500,0.498700,9.772800,0.419600,0.101600,1.992400
1730864352437,-33.256800,46.558000,-21.159300,1.672300,0.543000,9.935700,0.340900,0.110700,2.025600
1730864352447,-35.955900,49.885200,-21.234100,1.055000,0.604700,10.075800,0.215000,0.123200,2.054100
1730864352467,-32.232500,66.737900,-17.981700,1.931500,0.826800,9.715900,0.393700,0.168500,1.980800
1730864352477,-29.929600,70.281900,-14.751700,1.987200,0.823200,9.633300,0.405100,0.167800,1.963900
1730864352487,-27.290300,72.248300,-12.007700,2.416500,0.623300,9.444700,0.492600,0.127000,1.925500
1730864352497,-24.987400,71.874500,-9.749700,2.544700,0.541200,9.375900,0.518700,0.110300,1.911400
1730864352507,-23.327600,69.175400,-7.895500,2.691400,0.711300,9.405200,0.548700,0.145000,1.917400
1730864352516,-21.323800,60.689200,-3.155200,2.904500,0.955600,9.420800,0.591000,0.180600,1.956700
1730864352526,-20.800400,57.182600,0.867300,3.060200,0.477200,9.589600,0.623900,0.097200,1.955000
1730864352536,-20.613500,54.348900,0.179400,3.170400,0.089800,9.470500,0.646300,0.018300,1.930700
1730864352546,-20.643400,52.920800,0.179400,3.254200,0.129300,9.275900,0.663400,0.026300,1.891100
1730864352557,-20.800400,51.844100,-1.383200,3.322400,0.244800,9.008800,0.677300,0.049900,1.836600
1730864352566,-20.164900,50.326300,-3.798200,3.402100,0.409500,9.057300,0.702000,0.098200,1.865800
1730864352576,-17.914400,44.539300,-10.153500,3.290100,0.327500,9.171700,0.675500,0.066700,1.869800
1730864352586,-16.583500,43.215900,-12.359100,3.350600,0.058000,8.925000,0.683100,0.011800,1.819500
1730864352596,-14.983500,43.380400,-13.906800,3.632000,0.081400,8.765700,0.740400,0.016600,1.787100
1730864352606,-12.456300,44.068200,-13.876900,4.237300,0.293900,8.501700,0.863800,0.059900,1.733200
1730864352616,-9.869300,44.958000,-11.417000,4.114000,0.452600,8.706400,0.838700,0.092200,1.775000
1730864352626,-9.316100,45.227200,-8.246900,4.059500,0.308900,8.762700,0.841600,0.029900,1.784400
1730864352636,-12.762900,46.146800,-7.102900,4.207400,0.156200,8.708200,0.857700,0.031800,1.775300
1730864352646,-14.041400,47.492600,-6.190700,4.172700,0.015500,8.541200,0.850700,0.003100,1.741300
1730864352656,-15.118100,50.341300,-5.398200,4.267900,0.120900,8.463900,0.870100,0.024600,1.725500
1730864352666,-16.336800,53.518900,-5.069200,4.281600,0.189800,8.504700,0.872900,0.038600,1.733800
1730864352676,-17.032100,56.098400,-5.316000,4.118800,0.146000,8.501100,0.839700,0.029700,1.733100
1730864352686,-17.002200,62.259300,-5.637500,4.164300,0.368800,8.501100,0.905500,0.062100,1.734900
1730864352696,-17.196600,64.450000,-5.607600,4.446300,0.211900,8.582500,0.906400,0.043200,1.749700
1730864352706,-17.884500,65.810800,-5.846800,4.468500,0.095200,8.641800,0.911000,0.019400,1.761800
1730864352716,-18.557400,67.597800,-5.839300,4.644500,0.269400,8.587900,0.946800,0.054900,1.750800
1730864352726,-19.835900,69.683800,-5.360800,4.905000,0.250200,8.433400,1.000000,0.051000,1.719300
1730864352736,-20.725700,70.723100,-5.622500,4.896000,0.287400,8.210100,1.010300,0.068100,1.603700
1730864352745,-20.628500,71.493200,-5.173900,4.955800,0.252000,7.710700,1.060700,0.051300,1.572000
1730864352755,-20.351800,71.089400,-5.121600,5.329500,0.315500,7.674800,1.086500,0.064300,1.564600
1730864352766,-19.806000,69.818400,-5.316000,5.282200,0.355600,7.720300,1.076900,0.072500,1.573900
1730864352776,-19.738700,69.123000,-6.071100,5.340200,0.564600,7.672400,1.088700,0.115100,1.564200
1730864352786,-19.619100,69.676300,-6.871100,5.319300,0.640000,7.680200,1.084400,0.130400,1.565700
1730864352796,-19.252700,70.304400,-9.338500,5.322900,0.574800,7.689200,1.100200,0.102500,1.576900
1730864352806,-17.465800,70.610900,-10.519800,5.580900,0.528100,7.602900,1.137800,0.107600,1.550000
1730864352816,-16.037700,70.790400,-11.073100,5.872500,0.440600,7.386200,1.197200,0.089800,1.505800
1730864352826,-14.415200,70.087500,-11.402100,6.083900,0.414300,7.103000,1.240300,0.084400,1.448100
1730864352836,-12.688100,68.151000,-11.289900,6.166500,0.285600,6.850300,1.257200,0.058200,1.396600
1730864352846,-10.796500,64.868700,-11.417000,6.343800,0.382600,6.712600,1.293300,0.078000,1.337200
1730864352855,-8.553400,57.833000,-10.646900,6.410200,0.305900,6.547900,1.303200,0.033400,1.324800
1730864352865,-8.762800,55.231100,-9.719800,6.313800,0.059800,6.555100,1.287200,0.012200,1.336400
1730864352875,-10.205800,53.818000,-8.478600,6.437800,0.096900,6.648500,1.312500,0.019700,1.355400
1730864352885,-12.022700,53.055400,-6.878600,6.655100,0.150800,6.641300,1.356800,0.030700,1.354000
