timestamp,Gyro_x,Gyro_y,Gyro_z,Accel_x,Accel_y,Accel_z,Mag_x,Mag_y,Mag_z
1730864996540,-4.665500,0.859800,-1.629900,0.256800,-7.498800,-6.461700,0.052300,-1.528800,-1.317300
1730864996541,-4.620600,0.837400,-1.562600,0.259800,-7.498200,-6.456900,0.052900,-1.528600,-1.316400
1730864996541,-4.658000,0.844800,-1.532700,0.256200,-7.507100,-6.466500,0.052600,-1.531700,-1.317800
1730864996541,-4.717800,0.867300,-1.622400,0.256800,-7.498200,-6.456900,0.052300,-1.528600,-1.316400
1730864996541,-4.822500,0.889700,-1.614900,0.252600,-7.497000,-6.459900,0.051500,-1.528400,-1.317000
1730864996542,-4.732800,0.725200,-1.592500,0.251400,-7.511900,-6.459300,0.051300,-1.531400,-1.316800
1730864996542,-4.822500,0.874700,-1.749500,0.259800,-7.498200,-6.459300,0.052900,-1.528600,-1.316800
1730864996542,-4.725300,0.859800,-1.607500,0.262200,-7.514300,-6.464700,0.053400,-1.531900,-1.317900
1730864996543,-4.889800,0.867300,-1.674800,0.265800,-7.509500,-6.464100,0.054100,-1.531000,-1.317800
1730864996543,-4.859900,0.912100,-1.659800,0.257400,-7.494600,-6.458700,0.052400,-1.527900,-1.316700
1730864996543,-4.882300,0.919600,-1.614900,0.261000,-7.498800,-6.465300,0.053200,-1.528800,-1.318100
1730864996544,-4.815000,0.807400,-1.637400,0.256200,-7.502900,-6.458100,0.052200,-1.529600,-1.316600
1730864996544,-4.844900,0.837400,-1.600000,0.251400,-7.497000,-6.458100,0.051200,-1.528400,-1.316600
1730864996544,-4.822500,0.912100,-1.674800,0.255600,-7.508300,-6.456300,0.054100,-1.529600,-1.318900
1730864996545,-4.897300,0.859800,-1.667300,0.252600,-7.506500,-6.456900,0.051500,-1.530300,-1.316400
1730864996545,-4.882300,0.912100,-1.637400,0.252000,-7.503500,-6.461700,0.051300,-1.529700,-1.317300
1730864996545,-4.673000,0.770100,-1.659800,0.252600,-7.501800,-6.469500,0.051600,-1.528400,-1.318100
1730864996546,-4.740200,0.889700,-1.577600,0.247800,-7.508300,-6.456900,0.050500,-1.530700,-1.316400
1730864996546,-4.882300,-1.046700,-1.644800,0.253800,-7.506500,-6.455700,0.051700,-1.530300,-1.316100
1730864996546,-4.605700,0.904600,-1.719600,0.261600,-7.502300,-6.461700,0.052800,-1.529700,-1.318400
1730864996547,-4.792600,0.882200,-1.607500,0.258000,-7.508300,-6.470100,0.052600,-1.530700,-1.319000
1730864996547,-4.762700,0.859800,-1.644800,0.241200,-7.501800,-6.451500,0.049100,-1.529400,-1.315300
1730864996547,-4.732800,0.897200,-1.629900,0.258600,-7.503500,-6.462900,0.053200,-1.529700,-1.317600
1730864996547,-4.807500,0.852300,-1.629900,0.250200,-7.502300,-6.466500,0.051000,-1.529500,-1.318300
1730864996548,-4.957100,0.814900,-1.637400,0.252600,-7.504100,-6.458700,0.051500,-1.529900,-1.316700
1730864996548,-4.598200,0.747600,-1.532700,0.258000,-7.508900,-6.461100,0.052600,-1.530800,-1.317200
1730864996548,-4.904700,0.792500,-1.532700,0.256200,-7.501200,-6.448500,0.052200,-1.529200,-1.314600
1730864996549,-4.785100,0.919600,-1.585000,0.255000,-7.496400,-6.456300,0.052000,-1.528300,-1.316200
1730864996549,-4.859900,0.822400,-1.712100,0.264600,-7.510100,-6.470100,0.053900,-1.531100,-1.319000
1730864996549,-4.717800,0.904600,-1.592500,0.253200,-7.499400,-6.455700,0.051600,-1.528900,-1.316100
1730864996550,-4.994500,0.867300,-1.659800,0.253200,-7.499400,-6.459300,0.052100,-1.530500,-1.317300
1730864996550,-4.785100,0.807400,-1.652300,0.261000,-7.500600,-6.465300,0.053200,-1.529100,-1.318100
1730864996550,-4.830000,0.912100,-1.629900,0.255600,-7.508300,-6.454500,0.052100,-1.530700,-1.315900
1730864996550,-4.777600,0.785000,-1.637400,0.242400,-7.500000,-6.455100,0.051600,-1.530100,-1.316600
1730864996551,-4.628100,0.822400,-1.667300,0.265200,-7.514300,-6.464100,0.054000,-1.531900,-1.317800
1730864996551,-4.658000,0.777500,-1.517700,0.262200,-7.492800,-6.453300,0.053400,-1.527500,-1.315600
1730864996551,-4.486000,0.762600,-1.682200,0.261600,-7.469400,-6.416200,0.052600,-1.530500,-1.317000
1730864996552,-4.605700,0.829900,-1.659800,0.259800,-7.535300,-6.496400,0.052900,-1.536200,-1.324400
1730864996552,-5.031800,0.800000,-1.629900,0.267000,-7.492200,-6.462900,0.054400,-1.527400,-1.317600
1730864996552,-4.987000,0.949500,-1.495300,0.260400,-7.507100,-6.463500,0.053300,-1.530500,-1.317700
1730864996553,-4.912200,0.785000,-1.697200,0.268800,-7.534100,-6.483300,0.054800,-1.536000,-1.321700
1730864996553,-5.031800,0.867300,-1.577600,0.256800,-7.494600,-6.452100,0.052300,-1.527900,-1.315400
1730864996553,-4.897300,0.934600,-1.547600,0.239500,-7.532300,-6.465300,0.048800,-1.535600,-1.318100
1730864996554,-4.792600,0.740200,-1.614900,0.271200,-7.543700,-6.498800,0.055200,-1.537900,-1.324900
1730864996554,-4.949600,0.777500,-1.450500,0.276600,-7.510700,-6.471300,0.056300,-1.531200,-1.288000
1730864996554,-5.181400,-1.046700,-1.345800,0.243000,-7.492800,-6.441400,0.049500,-1.527500,-1.313200
1730864996555,-4.942100,0.822400,-1.622400,0.259800,-7.503500,-6.460500,0.052900,-1.529700,-1.317100
1730864996555,-4.994500,0.755100,-1.428000,0.266400,-7.538900,-6.471300,0.052300,-1.541100,-1.322200
1730864996555,-5.166400,0.844800,-1.398100,0.256200,-7.513700,-6.443200,0.052200,-1.531800,-1.313500
1730864996555,-5.353300,-1.076600,-1.248600,0.252000,-7.537100,-6.457500,0.051300,-1.536600,-1.316500
1730864996556,-5.428100,-1.076600,-1.435500,0.254400,-7.511900,-6.459900,0.054600,-1.527200,-1.312300
1730864996556,-5.435600,0.889700,-1.420500,0.242400,-7.484400,-6.424000,0.049400,-1.525800,-1.309600
1730864996556,-5.338400,0.889700,-1.652300,0.262200,-7.504700,-6.443700,0.053400,-1.530000,-1.313700
1730864996557,-5.308500,-1.009300,-1.443000,0.251400,-7.470600,-6.411400,0.046300,-1.534600,-1.316000
1730864996557,-5.248700,-1.173800,-1.420500,0.223900,-7.447300,-6.394100,0.045600,-1.518300,-1.303500
1730864996557,-5.271100,0.785000,-1.943900,0.254400,-7.557400,-6.422200,0.051800,-1.540700,-1.309300
1730864996558,-4.994500,0.844800,-1.502800,0.262800,-7.489200,-6.378500,0.047900,-1.526800,-1.300400
1730864996558,-4.762700,0.934600,-1.555100,0.229900,-7.540100,-6.466500,0.046800,-1.537200,-1.318300
1730864996558,-4.807500,0.710200,-1.914000,0.264000,-7.500000,-6.424600,0.053800,-1.529000,-1.309800
1730864996559,-4.957100,-1.061700,-1.330800,0.240600,-7.534100,-6.428200,0.049000,-1.536000,-1.310500
1730864996559,-4.912200,0.852300,-1.682200,0.232900,-7.516100,-6.436000,0.047400,-1.532300,-1.312100
1730864996559,-4.792600,0.807400,-1.734600,0.254400,-7.525100,-6.467100,0.051800,-1.534100,-1.318400
1730864996560,-4.912200,0.912100,-1.585000,0.250800,-7.526900,-6.425200,0.051100,-1.534500,-1.309900
1730864996560,-4.994500,-1.024300,-1.525200,0.238300,-7.522700,-6.421600,0.048500,-1.533600,-1.309200
1730864996560,-4.912200,0.844800,-1.794400,0.249000,-7.531100,-6.447900,0.052200,-1.533500,-1.312300
1730864996560,-4.844900,0.829900,-1.562600,0.238900,-7.529900,-6.434200,0.048700,-1.535100,-1.311700
1730864996561,-4.994500,0.979400,-1.525200,0.233500,-7.523900,-6.437800,0.047600,-1.533900,-1.312500
1730864996561,-4.613100,0.807400,-1.816800,0.252600,-7.532900,-6.437200,0.052800,-1.535500,-1.313700
1730864996561,-4.972000,0.912100,-1.525200,0.255000,-7.525700,-6.440200,0.052000,-1.534300,-1.312900
1730864996562,-4.844900,0.867300,-1.472900,0.234100,-7.520300,-6.436000,0.047700,-1.533200,-1.312100
1730864996562,-4.658000,0.829900,-1.846700,0.244800,-7.519700,-6.448500,0.052000,-1.534300,-1.314800
1730864996562,-4.830000,0.994400,-1.719600,0.250800,-7.525700,-6.432400,0.051100,-1.534300,-1.311400
1730864996563,-4.762700,0.852300,-1.517700,0.240600,-7.531100,-6.436600,0.049000,-1.535400,-1.312200
1730864996563,-4.628100,0.725200,-1.667300,0.257400,-7.522700,-6.458700,0.051000,-1.533600,-1.316700
1730864996563,-4.822500,0.770100,-1.629900,0.249000,-7.532900,-6.428800,0.050700,-1.535700,-1.310600
1730864996563,-4.777600,0.957000,-1.525200,0.241200,-7.529900,-6.418600,0.049100,-1.535100,-1.308500
1730864996564,-4.613100,0.800000,-1.697200,0.249600,-7.520900,-6.455100,0.050900,-1.533300,-1.316000
1730864996564,-4.650500,0.859800,-1.607500,0.247800,-7.525100,-6.451500,0.050500,-1.534100,-1.315300
1730864996564,-4.942100,0.859800,-1.622400,0.239500,-7.516100,-6.432400,0.048800,-1.532300,-1.311400
1730864996565,-4.777600,0.837400,-1.682200,0.249600,-7.513700,-6.440800,0.050900,-1.531800,-1.313100
1730864996565,-4.964500,0.814900,-1.667300,0.245400,-7.523900,-6.443700,0.050000,-1.533900,-1.313700
1730864996565,-4.807500,0.897200,-1.577600,0.237700,-7.535300,-6.434800,0.050200,-1.535400,-1.310000
1730864996566,-4.867400,0.859800,-1.719600,0.246600,-7.528100,-6.437800,0.050200,-1.534700,-1.312500
1730864996566,-4.912200,0.814900,-1.689700,0.256200,-7.522700,-6.450300,0.052200,-1.533600,-1.315000
1730864996566,-4.972000,0.882200,-1.577600,0.246000,-7.516700,-6.440800,0.050200,-1.534700,-1.311100
1730864996567,-4.934600,0.912100,-1.689700,0.243600,-7.529300,-6.431200,0.049600,-1.535000,-1.311100
1730864996567,-4.785100,0.725200,-1.667300,0.252600,-7.523900,-6.444300,0.051500,-1.533900,-1.313800
1730864996567,-4.777600,0.844800,-1.614900,0.239500,-7.526300,-6.432400,0.050000,-1.533300,-1.311600
1730864996568,-4.852400,0.867300,-1.742000,0.250800,-7.522700,-6.442600,0.051100,-1.533600,-1.313400
1730864996568,-4.650500,0.829900,-1.570100,0.238300,-7.528700,-6.435400,0.048500,-1.534900,-1.312000
1730864996568,-5.031800,0.904600,-1.659800,0.241200,-7.531100,-6.436600,0.050700,-1.535400,-1.312200
1730864996568,-4.830000,0.882200,-1.614900,0.247200,-7.523300,-6.440800,0.050400,-1.533800,-1.313100
1730864996569,-4.852400,0.882200,-1.772000,0.246600,-7.532900,-6.433600,0.050200,-1.535700,-1.311600
1730864996569,-4.964500,0.904600,-1.674800,0.247200,-7.517900,-6.441400,0.050400,-1.532700,-1.313200
1730864996569,-5.016900,0.927100,-1.712100,0.238900,-7.528100,-6.437800,0.048700,-1.534700,-1.312500
1730864996570,-4.815000,0.800000,-1.637400,0.249600,-7.528100,-6.443700,0.050900,-1.534700,-1.311800
1730864996570,-4.844900,0.942000,-1.727100,0.250200,-7.527500,-6.437200,0.051000,-1.534600,-1.312300
1730864996570,-4.867400,0.807400,-1.704700,0.249600,-7.532900,-6.431800,0.050900,-1.535700,-1.311200
1730864996571,-4.927200,0.859800,-1.614900,0.253200,-7.528700,-6.439000,0.050200,-1.532700,-1.311000
1730864996571,-4.867400,0.919600,-1.682200,0.251400,-7.525700,-6.429400,0.051200,-1.534300,-1.310700
1730864996571,-4.815000,0.829900,-1.585000,0.250200,-7.522100,-6.439600,0.051000,-1.533500,-1.312800
1730864996572,-4.942100,0.770100,-1.712100,0.245400,-7.524500,-6.442000,0.051100,-1.533900,-1.313300
1730864996572,-4.837400,0.889700,-1.652300,0.250800,-7.526900,-6.444900,0.051100,-1.534500,-1.313900
1730864996572,-4.957100,0.867300,-1.607500,0.248400,-7.529300,-6.445500,0.050600,-1.535000,-1.314000
1730864996572,-4.800100,0.829900,-1.607500,0.243600,-7.526900,-6.437200,0.050200,-1.533800,-1.310000
1730864996573,-4.732800,0.874700,-1.555100,0.246600,-7.529300,-6.436600,0.050200,-1.535000,-1.312200
1730864996573,-4.725300,0.867300,-1.600000,0.242400,-7.531100,-6.433600,0.049400,-1.535400,-1.311600
1730864996573,-4.740200,0.852300,-1.614900,0.245400,-7.531100,-6.430000,0.051500,-1.535400,-1.310900
1730864996574,-4.762700,0.889700,-1.637400,0.255600,-7.530500,-6.431800,0.052100,-1.535200,-1.311200
1730864996574,-4.934600,0.957000,-1.600000,0.238900,-7.527500,-6.432400,0.048700,-1.534600,-1.311400
1730864996574,-4.882300,0.770100,-1.689700,0.251400,-7.529900,-6.433000,0.051200,-1.535100,-1.311500
1730864996575,-4.725300,0.942000,-1.659800,0.253800,-7.533500,-6.431800,0.051700,-1.535800,-1.311200
1730864996575,-4.815000,0.837400,-1.532700,0.241800,-7.528700,-6.443700,0.049300,-1.534900,-1.312500
1730864996575,-4.904700,0.934600,-1.697200,0.246000,-7.534700,-6.430000,0.050100,-1.536100,-1.310900
1730864996576,-4.904700,0.837400,-1.600000,0.250200,-7.530500,-6.428200,0.051000,-1.535200,-1.310500
1730864996576,-4.972000,0.874700,-1.667300,0.244200,-7.525100,-6.436000,0.050900,-1.532700,-1.312500
1730864996576,-4.800100,0.770100,-1.629900,0.253800,-7.528100,-6.434800,0.051700,-1.534700,-1.311800
1730864996576,-4.897300,0.897200,-1.629900,0.247800,-7.528100,-6.430600,0.050500,-1.534700,-1.311000
1730864996577,-4.912200,0.859800,-1.749500,0.246600,-7.532900,-6.440200,0.051300,-1.535600,-1.313500
1730864996577,-4.844900,0.889700,-1.644800,0.253800,-7.519100,-6.443200,0.051700,-1.532900,-1.313500
1730864996577,-4.695400,0.837400,-1.592500,0.238900,-7.532300,-6.436000,0.048700,-1.535600,-1.312100
1730864996578,-4.807500,0.822400,-1.577600,0.246000,-7.524500,-6.433000,0.050500,-1.534700,-1.312600
1730864996578,-4.680400,0.717700,-1.614900,0.250200,-7.534700,-6.436000,0.051000,-1.536100,-1.312100
1730864996578,-4.598200,0.822400,-1.525200,0.249000,-7.527500,-6.438400,0.050700,-1.534600,-1.312600
1730864996579,-4.620600,0.852300,-1.659800,0.249000,-7.538300,-6.430000,0.050100,-1.536800,-1.310900
1730864996579,-4.800100,0.889700,-1.652300,0.249000,-7.525100,-6.436600,0.050700,-1.534100,-1.312200
1730864996579,-4.800100,0.934600,-1.719600,0.248400,-7.529900,-6.444900,0.050600,-1.535100,-1.313900
1730864996580,-4.628100,0.770100,-1.600000,0.244200,-7.526300,-6.442600,0.049800,-1.534400,-1.313400
1730864996580,-4.643000,0.957000,-1.614900,0.247800,-7.525100,-6.442000,0.050500,-1.534100,-1.313300
1730864996580,-4.665500,0.837400,-1.570100,0.235900,-7.528100,-6.430000,0.048000,-1.534700,-1.309500
1730864996581,-4.732800,0.814900,-1.614900,0.253800,-7.525700,-6.442600,0.051700,-1.534300,-1.313400
1730864996581,-4.568300,0.770100,-1.607500,0.244800,-7.534700,-6.422800,0.049900,-1.536100,-1.309400
1730864996581,-4.934600,0.927100,-1.697200,0.240600,-7.531100,-6.424000,0.049900,-1.534500,-1.312000
1730864996581,-4.777600,0.874700,-1.629900,0.256200,-7.519700,-6.436600,0.052200,-1.533000,-1.312200
1730864996582,-4.874800,0.874700,-1.742000,0.256200,-7.526300,-6.433600,0.052200,-1.534400,-1.311600
1730864996582,-4.957100,0.904600,-1.629900,0.238300,-7.531700,-6.433000,0.049300,-1.534500,-1.312000
1730864996582,-4.777600,0.859800,-1.644800,0.249000,-7.532300,-6.427000,0.050700,-1.535600,-1.310300
1730864996583,-4.762700,0.889700,-1.592500,0.245400,-7.528700,-6.425200,0.050000,-1.534900,-1.309900
1730864996583,-4.717800,0.837400,-1.644800,0.243000,-7.517300,-6.423400,0.050500,-1.534100,-1.311800
1730864996583,-4.650500,0.800000,-1.689700,0.247800,-7.529300,-6.437200,0.050500,-1.535000,-1.312300
1730864996584,-4.605700,0.897200,-1.547600,0.240600,-7.529900,-6.429400,0.049000,-1.535100,-1.310700
1730864996584,-4.710300,0.814900,-1.532700,0.246000,-7.530500,-6.436000,0.050100,-1.535200,-1.312100
1730864996584,-4.732800,0.942000,-1.592500,0.253200,-7.530500,-6.441400,0.051600,-1.535200,-1.313200
1730864996585,-4.912200,0.971900,-1.600000,0.239500,-7.533500,-6.439000,0.048800,-1.535800,-1.312700
1730864996585,-4.717800,0.807400,-1.637400,0.238300,-7.534100,-6.429400,0.048500,-1.536000,-1.310700
1730864996585,-4.665500,0.800000,-1.622400,0.254400,-7.519700,-6.442600,0.051800,-1.533000,-1.313400
1730864996585,-4.830000,0.859800,-1.622400,0.246000,-7.525100,-6.429400,0.050100,-1.534100,-1.310300
1730864996586,-4.807500,0.844800,-1.697200,0.242400,-7.532900,-6.438400,0.049400,-1.535700,-1.312600
1730864996586,-4.687900,0.822400,-1.577600,0.251400,-7.535900,-6.436600,0.051200,-1.536300,-1.312200
1730864996586,-4.957100,0.927100,-1.592500,0.244200,-7.531700,-6.427600,0.050200,-1.534500,-1.309000
1730864996587,-4.762700,0.837400,-1.629900,0.246600,-7.532900,-6.428200,0.050200,-1.535700,-1.310500
1730864996587,-4.658000,0.814900,-1.629900,0.243000,-7.525100,-6.443700,0.049500,-1.534100,-1.313700
1730864996587,-4.680400,0.859800,-1.622400,0.244200,-7.534100,-6.426400,0.050200,-1.533900,-1.312300
1730864996588,-4.680400,0.740200,-1.614900,0.245400,-7.529300,-6.436000,0.050000,-1.535000,-1.312100
1730864996588,-4.620600,0.897200,-1.510300,0.248400,-7.529300,-6.439000,0.050600,-1.535000,-1.312700
1730864996588,-4.964500,0.979400,-1.719600,0.241200,-7.522700,-6.427600,0.048800,-1.535800,-1.312000
1730864996589,-4.844900,0.852300,-1.682200,0.245400,-7.531700,-6.436000,0.050000,-1.535500,-1.312100
1730864996589,-4.859900,0.807400,-1.622400,0.252600,-7.526300,-6.429400,0.051500,-1.534400,-1.310700
1730864996589,-4.897300,0.807400,-1.667300,0.241800,-7.525100,-6.427000,0.049300,-1.534100,-1.310300
1730864996589,-4.777600,0.829900,-1.674800,0.249600,-7.531100,-6.424600,0.050900,-1.535400,-1.309800
1730864996590,-4.972000,0.822400,-1.719600,0.252000,-7.529900,-6.440200,0.051300,-1.535100,-1.312900
1730864996590,-4.628100,0.897200,-1.532700,0.243000,-7.526900,-6.424600,0.049500,-1.534500,-1.309800
1730864996591,-4.725300,0.814900,-1.614900,0.255600,-7.523300,-6.433600,0.052100,-1.533800,-1.311600
1730864996591,-4.725300,0.874700,-1.637400,0.240600,-7.517900,-6.433600,0.049000,-1.532700,-1.312800
1730864996591,-4.747700,0.867300,-1.562600,0.237700,-7.516100,-6.449700,0.048400,-1.532300,-1.314900
1730864996591,-4.732800,0.777500,-1.555100,0.241800,-7.524500,-6.439000,0.049300,-1.534000,-1.312700
1730864996592,-4.762700,0.927100,-1.592500,0.233500,-7.533500,-6.444300,0.050500,-1.534100,-1.312000
1730864996592,-4.530900,0.867300,-1.629900,0.247200,-7.531100,-6.436600,0.050400,-1.535400,-1.312200
1730864996592,-4.725300,0.837400,-1.570100,0.244800,-7.525100,-6.443200,0.049900,-1.534100,-1.313500
1730864996593,-4.568300,0.844800,-1.622400,0.247200,-7.531700,-6.431800,0.051300,-1.535200,-1.312000
1730864996593,-4.725300,0.882200,-1.674800,0.243000,-7.525100,-6.436000,0.049500,-1.534100,-1.312100
1730864996593,-4.762700,0.874700,-1.757000,0.239500,-7.527500,-6.437800,0.048800,-1.534600,-1.312500
1730864996594,-4.837400,0.822400,-1.600000,0.244200,-7.530500,-6.431200,0.048300,-1.532400,-1.310500
1730864996594,-4.605700,0.785000,-1.577600,0.242400,-7.519100,-6.430600,0.049400,-1.532900,-1.311000
1730864996594,-4.643000,0.844800,-1.600000,0.252000,-7.530500,-6.444300,0.051300,-1.535200,-1.313800
1730864996595,-4.523400,0.777500,-1.510300,0.248400,-7.520300,-6.436000,0.050600,-1.533200,-1.312100
1730864996595,-4.605700,0.755100,-1.644800,0.246600,-7.531700,-6.440800,0.050200,-1.535500,-1.313100
1730864996595,-4.553300,0.844800,-1.570100,0.251400,-7.530500,-6.433600,0.051200,-1.535200,-1.311600
1730864996596,-4.673000,0.867300,-1.585000,0.244200,-7.527500,-6.438400,0.049800,-1.534600,-1.312600
1730864996596,-4.620600,0.852300,-1.637400,0.247200,-7.522100,-6.443700,0.050400,-1.533500,-1.313700
1730864996596,-4.710300,0.822400,-1.577600,0.244800,-7.529300,-6.437200,0.049900,-1.535000,-1.313100
1730864996597,-4.658000,0.800000,-1.555100,0.249000,-7.529900,-6.434800,0.050700,-1.535100,-1.311800
1730864996597,-4.792600,0.919600,-1.682200,0.252000,-7.520300,-6.443700,0.051300,-1.533200,-1.313700
1730864996597,-4.837400,0.979400,-1.525200,0.246600,-7.524500,-6.436000,0.050000,-1.534400,-1.310600
1730864996597,-4.605700,0.717700,-1.607500,0.249600,-7.522100,-6.439000,0.050900,-1.533500,-1.312700
1730864996598,-4.687900,0.792500,-1.607500,0.244800,-7.532900,-6.433000,0.049900,-1.535700,-1.311500
1730864996598,-4.740200,0.882200,-1.540200,0.246000,-7.530500,-6.441400,0.048500,-1.534500,-1.312300
1730864996598,-4.628100,0.807400,-1.585000,0.256200,-7.533500,-6.440200,0.052200,-1.535800,-1.312900
1730864996599,-4.680400,0.800000,-1.540200,0.251400,-7.525100,-6.446700,0.051200,-1.534100,-1.314300
1730864996599,-4.852400,0.957000,-1.704700,0.234100,-7.529900,-6.434800,0.051700,-1.534400,-1.312100
1730864996599,-4.792600,0.867300,-1.555100,0.251400,-7.535300,-6.431800,0.051200,-1.536200,-1.311200
1730864996600,-4.822500,0.882200,-1.667300,0.244200,-7.530500,-6.437800,0.049800,-1.535200,-1.312500
1730864996600,-4.807500,0.800000,-1.659800,0.243000,-7.523900,-6.429400,0.049500,-1.533900,-1.310700
1730864996600,-4.837400,0.852300,-1.607500,0.244800,-7.526300,-6.442600,0.049900,-1.534400,-1.313400
1730864996601,-4.897300,0.837400,-1.592500,0.244800,-7.519100,-6.434800,0.049900,-1.532900,-1.311800
1730864996601,-4.740200,0.740200,-1.682200,0.240100,-7.532300,-6.436000,0.048900,-1.535600,-1.312100
1730864996601,-4.635600,0.770100,-1.570100,0.243600,-7.522100,-6.437200,0.049600,-1.533500,-1.312300
1730864996602,-4.673000,0.889700,-1.547600,0.242400,-7.523300,-6.423400,0.049400,-1.533800,-1.311700
1730864996602,-4.770200,0.762600,-1.667300,0.249600,-7.526900,-6.431200,0.050900,-1.534500,-1.311100
1730864996602,-4.717800,0.829900,-1.577600,0.243000,-7.525700,-6.425800,0.049500,-1.534300,-1.310000
1730864996602,-4.882300,0.762600,-1.727100,0.247800,-7.529900,-6.427000,0.047300,-1.534700,-1.310600
1730864996603,-4.740200,0.665400,-1.674800,0.247800,-7.527500,-6.430000,0.050500,-1.534600,-1.310900
1730864996603,-4.628100,0.912100,-1.629900,0.248400,-7.521500,-6.438400,0.050600,-1.533400,-1.312600
1730864996603,-4.785100,0.859800,-1.757000,0.240600,-7.519100,-6.434200,0.049000,-1.532700,-1.309800
1730864996604,-4.426200,0.777500,-1.704700,0.247800,-7.515500,-6.434800,0.050500,-1.532200,-1.311800
1730864996604,-4.889800,0.912100,-1.592500,0.246000,-7.522700,-6.451500,0.050100,-1.533600,-1.315300
1730864996623,-4.897300,0.897200,-1.614900,0.232300,-7.507700,-6.445500,0.047300,-1.530600,-1.314000
1730864996628,-4.972000,0.770100,-1.637400,0.235300,-7.504100,-6.454500,0.048800,-1.531200,-1.311700
1730864996647,-4.635600,0.687800,-1.607500,0.231700,-7.507100,-6.450300,0.047200,-1.530500,-1.315000
1730864996667,-4.830000,0.942000,-1.540200,0.237700,-7.521500,-6.439600,0.048400,-1.533400,-1.312800
1730864996686,-4.673000,0.747600,-1.637400,0.241800,-7.509500,-6.439600,0.049800,-1.530700,-1.312100
1730864996707,-4.650500,0.770100,-1.585000,0.243600,-7.517900,-6.449100,0.049600,-1.532700,-1.314800
1730864996727,-4.815000,0.919600,-1.495300,0.235900,-7.521500,-6.443700,0.048000,-1.533400,-1.313700
1730864996747,-4.785100,0.844800,-1.667300,0.223300,-7.514900,-6.429400,0.047700,-1.532100,-1.310700
1730864996767,-4.658000,0.807400,-1.667300,0.240100,-7.519700,-6.445500,0.048900,-1.533000,-1.314000
1730864996787,-4.912200,0.919600,-1.644800,0.238300,-7.514300,-6.441400,0.048500,-1.531900,-1.313200
1730864996806,-4.710300,0.874700,-1.637400,0.239500,-7.520900,-6.451500,0.048800,-1.533300,-1.315300
1730864996825,-4.837400,0.882200,-1.592500,0.237100,-7.514300,-6.439600,0.048300,-1.531900,-1.312800
1730864996845,-4.867400,0.949500,-1.517700,0.226900,-7.514900,-6.437800,0.046200,-1.532100,-1.314400
1730864996866,-4.493500,0.822400,-1.667300,0.240100,-7.513100,-6.440800,0.048900,-1.531700,-1.313100
1730864996885,-4.598200,0.829900,-1.517700,0.237700,-7.520300,-6.436600,0.048400,-1.533200,-1.312200
1730864996906,-4.725300,-1.001800,-1.480400,0.233500,-7.528700,-6.453900,0.050000,-1.534000,-1.314800
1730864996926,-4.815000,0.762600,-1.659800,0.244800,-7.514900,-6.454500,0.049900,-1.532100,-1.315900
1730864996946,-4.770200,0.852300,-1.502800,0.240600,-7.529900,-6.446100,0.049000,-1.535100,-1.314200
1730864996966,-4.635600,0.837400,-1.487800,0.232300,-7.529300,-6.454500,0.048300,-1.534000,-1.315900
1730864996986,-4.710300,0.800000,-1.607500,0.241200,-7.511900,-6.446100,0.049100,-1.531400,-1.314200
1730864997006,-4.673000,0.889700,-1.555100,0.241200,-7.516700,-6.436000,0.049100,-1.532400,-1.312100
1730864997026,-4.725300,0.912100,-1.629900,0.228100,-7.505900,-6.433000,0.045800,-1.532200,-1.312100
1730864997046,-4.815000,0.874700,-1.659800,0.243600,-7.515500,-6.441400,0.049600,-1.532200,-1.313200
1730864997066,-4.830000,0.844800,-1.682200,0.241800,-7.522100,-6.445500,0.049300,-1.533500,-1.314000
1730864997086,-4.859900,0.897200,-1.562600,0.232300,-7.516700,-6.448500,0.047300,-1.532400,-1.314600
1730864997106,-4.800100,0.904600,-1.659800,0.234100,-7.515500,-6.450900,0.047700,-1.532200,-1.315100
1730864997126,-4.949600,0.852300,-1.659800,0.234100,-7.515500,-6.428800,0.047700,-1.532200,-1.310600
1730864997145,-4.747700,0.852300,-1.614900,0.237100,-7.515500,-6.445500,0.048300,-1.532200,-1.314000
1730864997165,-4.665500,0.867300,-1.689700,0.238300,-7.516100,-6.450300,0.048500,-1.532300,-1.315000
1730864997184,-4.695400,0.919600,-1.585000,0.237700,-7.520300,-6.444900,0.048400,-1.533200,-1.312600
1730864997205,-4.837400,0.897200,-1.570100,0.237700,-7.517300,-6.444300,0.048400,-1.532500,-1.313800
1730864997225,-4.695400,0.829900,-1.629900,0.244800,-7.516100,-6.445500,0.049900,-1.532300,-1.314000
1730864997245,-4.687900,0.822400,-1.614900,0.237100,-7.520300,-6.439600,0.047400,-1.536000,-1.315100
1730864997265,-4.807500,0.882200,-1.719600,0.229300,-7.511300,-6.450900,0.046700,-1.531300,-1.315100
1730864997285,-4.822500,0.904600,-1.600000,0.249600,-7.511300,-6.443700,0.050900,-1.531300,-1.313700
1730864997305,-4.717800,0.919600,-1.547600,0.244200,-7.517900,-6.443200,0.048800,-1.533300,-1.315900
1730864997325,-5.031800,0.934600,-1.749500,0.238900,-7.518500,-6.446700,0.048700,-1.532800,-1.314300
1730864997344,-4.867400,0.919600,-1.659800,0.237100,-7.523900,-6.450900,0.048300,-1.533900,-1.315100
1730864997365,-4.830000,0.837400,-1.742000,0.233500,-7.514300,-6.443700,0.048700,-1.531100,-1.314400
1730864997384,-4.800100,0.889700,-1.682200,0.230500,-7.513700,-6.451500,0.046900,-1.531800,-1.315300
1730864997405,-4.777600,0.844800,-1.607500,0.234700,-7.524500,-6.458100,0.047800,-1.534000,-1.316600
1730864997425,-4.897300,0.897200,-1.637400,0.243600,-7.515500,-6.443700,0.047100,-1.532200,-1.313700
1730864997444,-4.777600,0.912100,-1.727100,0.232900,-7.520900,-6.440800,0.047400,-1.533300,-1.313100
1730864997465,-4.882300,0.844800,-1.742000,0.238300,-7.515500,-6.444300,0.048500,-1.532200,-1.313800
1730864997485,-4.673000,0.852300,-1.480400,0.233500,-7.519100,-6.438400,0.047600,-1.532900,-1.312600
1730864997504,-4.725300,0.912100,-1.502800,0.231100,-7.515500,-6.438400,0.047100,-1.532200,-1.312600
1730864997524,-4.815000,0.807400,-1.772000,0.238300,-7.515500,-6.453300,0.048500,-1.532200,-1.315600
1730864997543,-4.807500,0.837400,-1.570100,0.235300,-7.517900,-6.444900,0.047900,-1.532700,-1.313900
1730864997564,-4.486000,0.814900,-1.540200,0.235900,-7.520300,-6.439600,0.048000,-1.533200,-1.312800
1730864997584,-4.725300,0.800000,-1.667300,0.242400,-7.517300,-6.451500,0.047600,-1.531700,-1.316600
1730864997604,-4.852400,0.874700,-1.547600,0.235300,-7.507700,-6.447900,0.047900,-1.530600,-1.314500
1730864997624,-4.800100,0.822400,-1.682200,0.240600,-7.513100,-6.433000,0.049000,-1.531700,-1.311500
1730864997644,-4.687900,0.829900,-1.719600,0.237700,-7.520300,-6.447900,0.048200,-1.533600,-1.315600
1730864997664,-4.687900,0.867300,-1.734600,0.234700,-7.521500,-6.449700,0.047800,-1.533400,-1.314900
1730864997684,-4.747700,0.777500,-1.570100,0.242400,-7.511900,-6.440800,0.049400,-1.531400,-1.313100
1730864997704,-4.658000,0.807400,-1.614900,0.233500,-7.513100,-6.455100,0.046500,-1.531400,-1.313700
1730864997724,-4.702900,0.882200,-1.577600,0.239500,-7.519100,-6.447900,0.048800,-1.532900,-1.314500
1730864997744,-4.717800,0.800000,-1.764500,0.232300,-7.517900,-6.451500,0.047300,-1.532700,-1.315300
1730864997764,-4.673000,0.829900,-1.585000,0.240100,-7.516100,-6.439600,0.049300,-1.532300,-1.312800
1730864997783,-4.762700,0.874700,-1.607500,0.230500,-7.511300,-6.452100,0.046900,-1.531300,-1.315400
1730864997804,-4.635600,0.807400,-1.540200,0.230500,-7.511300,-6.448500,0.046900,-1.531300,-1.314600
1730864997824,-4.598200,0.912100,-1.592500,0.241800,-7.516700,-6.444300,0.049300,-1.532400,-1.313800
1730864997843,-4.859900,0.957000,-1.622400,0.236500,-7.522100,-6.443200,0.048200,-1.533500,-1.313500
1730864997863,-4.815000,0.897200,-1.712100,0.237100,-7.519700,-6.447900,0.048300,-1.533000,-1.314500
1730864997883,-4.643000,0.829900,-1.562600,0.234100,-7.523900,-6.448500,0.047700,-1.533900,-1.314600
1730864997903,-4.620600,0.829900,-1.495300,0.232300,-7.510100,-6.447300,0.047300,-1.531100,-1.314400
1730864997922,-4.620600,0.912100,-1.525200,0.245400,-7.516100,-6.446700,0.049800,-1.531700,-1.314500
1730864997943,-4.732800,0.867300,-1.644800,0.228700,-7.517900,-6.442000,0.046600,-1.532700,-1.313300
1730864997962,-4.687900,0.889700,-1.562600,0.234700,-7.523300,-6.440200,0.047800,-1.533800,-1.312900
1730864997983,-4.830000,0.837400,-1.532700,0.237700,-7.510700,-6.439000,0.049500,-1.532700,-1.315500
1730864998003,-4.665500,0.814900,-1.547600,0.235300,-7.517300,-6.449100,0.047900,-1.532500,-1.314800
1730864998023,-4.583200,0.800000,-1.622400,0.228700,-7.513100,-6.443700,0.046600,-1.531700,-1.313700
1730864998043,-4.545800,0.762600,-1.607500,0.234700,-7.511900,-6.440200,0.048400,-1.532900,-1.314300
1730864998063,-4.844900,0.934600,-1.607500,0.225700,-7.518500,-6.447900,0.046000,-1.532800,-1.314500
1730864998082,-4.964500,0.927100,-1.712100,0.240600,-7.513700,-6.453900,0.049000,-1.531800,-1.315700
1730864998102,-4.859900,0.912100,-1.600000,0.229300,-7.515500,-6.446100,0.048000,-1.532200,-1.314200
1730864998123,-4.665500,0.882200,-1.562600,0.238900,-7.514900,-6.446100,0.048700,-1.532100,-1.314200
1730864998143,-4.620600,0.807400,-1.742000,0.243600,-7.518500,-6.449700,0.049600,-1.532800,-1.314900
1730864998163,-4.792600,0.934600,-1.704700,0.239500,-7.519700,-6.458100,0.048800,-1.533000,-1.316600
1730864998183,-4.777600,0.814900,-1.644800,0.230500,-7.508300,-6.447900,0.046900,-1.530700,-1.314500
1730864998202,-4.747700,0.800000,-1.585000,0.227500,-7.513700,-6.445500,0.046300,-1.531800,-1.282800
1730864998222,-4.889800,0.844800,-1.629900,0.240100,-7.513700,-6.452100,0.048900,-1.531800,-1.315400
1730864998242,-4.590700,0.785000,-1.555100,0.237100,-7.511300,-6.448500,0.048300,-1.531300,-1.314600
1730864998262,-4.695400,0.942000,-1.622400,0.225700,-7.514300,-6.444300,0.048400,-1.532400,-1.314400
1730864998282,-4.665500,0.822400,-1.637400,0.238900,-7.516700,-6.443200,0.048700,-1.532400,-1.313500
1730864998302,-4.732800,0.942000,-1.697200,0.243600,-7.513100,-6.456300,0.049600,-1.531700,-1.316200
1730864998322,-4.912200,0.912100,-1.697200,0.235900,-7.510100,-6.455100,0.049300,-1.532100,-1.314000
1730864998342,-4.830000,0.897200,-1.682200,0.230500,-7.517300,-6.449100,0.046900,-1.532500,-1.314800
1730864998362,-4.673000,0.807400,-1.614900,0.229900,-7.517300,-6.437800,0.046800,-1.532500,-1.312500
1730864998381,-4.717800,0.844800,-1.562600,0.237700,-7.508900,-6.434200,0.047200,-1.533400,-1.312500
1730864998402,-4.673000,0.889700,-1.547600,0.229900,-7.516100,-6.459300,0.046800,-1.532300,-1.316800
1730864998422,-4.613100,0.867300,-1.629900,0.242400,-7.504700,-6.455700,0.049400,-1.530000,-1.316100
1730864998442,-4.673000,0.822400,-1.487800,0.235900,-7.525100,-6.447300,0.046900,-1.534100,-1.314400
1730864998462,-4.687900,0.747600,-1.614900,0.235900,-7.523900,-6.449100,0.048000,-1.533900,-1.314800
1730864998482,-4.650500,0.777500,-1.585000,0.236500,-7.511900,-6.436600,0.048200,-1.531400,-1.312200
1730864998502,-4.695400,0.949500,-1.585000,0.237100,-7.523900,-6.442600,0.048300,-1.533900,-1.313400
1730864998522,-4.762700,0.919600,-1.719600,0.232900,-7.515500,-6.444900,0.047400,-1.532200,-1.313900
1730864998541,-4.822500,0.919600,-1.697200,0.236500,-7.511300,-6.449100,0.048200,-1.531300,-1.314800
1730864998561,-4.650500,0.732700,-1.585000,0.228700,-7.516100,-6.444900,0.046600,-1.532300,-1.313900
1730864998580,-4.560800,0.829900,-1.472900,0.237100,-7.511900,-6.440800,0.048300,-1.531400,-1.313100
1730864998601,-4.740200,0.852300,-1.659800,0.234700,-7.532300,-6.447900,0.046900,-1.534100,-1.310900
1730864998621,-4.717800,0.844800,-1.659800,0.240100,-7.511300,-6.442000,0.048900,-1.531300,-1.313300
1730864998641,-4.710300,0.882200,-1.592500,0.239500,-7.516700,-6.441400,0.048800,-1.532400,-1.313200
1730864998661,-4.590700,0.792500,-1.614900,0.238300,-7.512500,-6.450900,0.048200,-1.532300,-1.314000
1730864998681,-4.792600,0.919600,-1.585000,0.243600,-7.525700,-6.445500,0.049600,-1.534300,-1.314000
1730864998701,-4.687900,0.732700,-1.607500,0.240100,-7.517900,-6.449100,0.048900,-1.532700,-1.314800
1730864998721,-4.725300,0.897200,-1.547600,0.230500,-7.513100,-6.447900,0.049400,-1.533000,-1.315300
1730864998740,-4.650500,0.800000,-1.547600,0.238900,-7.517300,-6.448500,0.048700,-1.532500,-1.314600
1730864998761,-4.725300,0.829900,-1.622400,0.238300,-7.515500,-6.456900,0.048500,-1.532200,-1.316400
1730864998781,-4.575800,0.777500,-1.562600,0.232300,-7.520900,-6.452100,0.048400,-1.533300,-1.315400
1730864998801,-4.702900,0.882200,-1.659800,0.233500,-7.510100,-6.442000,0.047600,-1.531100,-1.313300
1730864998820,-4.590700,0.770100,-1.637400,0.231700,-7.515500,-6.448500,0.047200,-1.532200,-1.314600
1730864998841,-4.680400,0.822400,-1.570100,0.230500,-7.511300,-6.440800,0.046900,-1.531300,-1.313100
1730864998860,-4.800100,0.837400,-1.622400,0.242400,-7.518500,-6.454500,0.049400,-1.532800,-1.315900
1730864998879,-4.575800,0.747600,-1.562600,0.234100,-7.510700,-6.444300,0.047700,-1.531200,-1.313800
1730864998900,-4.658000,0.852300,-1.547600,0.233500,-7.513100,-6.446700,0.047600,-1.531700,-1.314300
1730864998920,-4.725300,0.762600,-1.600000,0.246600,-7.510100,-6.456900,0.050200,-1.531100,-1.316400
1730864998940,-4.807500,0.792500,-1.637400,0.237100,-7.516700,-6.459900,0.047100,-1.533900,-1.315000
1730864998960,-4.710300,0.889700,-1.600000,0.236500,-7.520300,-6.449100,0.048200,-1.533200,-1.314800
1730864998980,-4.635600,0.814900,-1.629900,0.235900,-7.511300,-6.452700,0.048000,-1.531300,-1.315500
1730864999000,-4.643000,0.814900,-1.592500,0.240600,-7.508900,-6.450900,0.048700,-1.532300,-1.312900
1730864999020,-4.613100,0.792500,-1.540200,0.241200,-7.519700,-6.442600,0.049100,-1.533000,-1.313400
1730864999040,-4.882300,0.814900,-1.659800,0.246000,-7.511900,-6.451500,0.050100,-1.531400,-1.315300
1730864999060,-4.852400,-1.039200,-1.629900,0.237700,-7.509500,-6.444900,0.047400,-1.531700,-1.313400
1730864999079,-4.897300,0.927100,-1.637400,0.236500,-7.513100,-6.446100,0.048200,-1.531700,-1.314200
1730864999100,-4.874800,0.762600,-1.614900,0.241200,-7.521500,-6.446100,0.049100,-1.533400,-1.314200
1730864999119,-4.673000,0.889700,-1.570100,0.238300,-7.517300,-6.444300,0.048200,-1.532200,-1.313800
1730864999139,-4.732800,0.800000,-1.727100,0.234700,-7.510700,-6.440200,0.047800,-1.531200,-1.312900
1730864999159,-4.695400,0.762600,-1.652300,0.242400,-7.517900,-6.455700,0.049400,-1.532700,-1.316100
1730864999178,-4.725300,0.867300,-1.517700,0.228700,-7.517300,-6.443700,0.046600,-1.532500,-1.313700
1730864999198,-4.710300,0.882200,-1.614900,0.234700,-7.516700,-6.453300,0.047800,-1.532400,-1.315600
1730864999218,-4.747700,0.822400,-1.719600,0.239500,-7.516100,-6.449100,0.048800,-1.532300,-1.314800
1730864999238,-4.747700,0.800000,-1.495300,0.235300,-7.516100,-6.438400,0.047900,-1.532300,-1.312600
1730864999259,-4.770200,0.785000,-1.607500,0.233500,-7.513700,-6.447300,0.047600,-1.531800,-1.314400
1730864999279,-4.800100,0.852300,-1.637400,0.242400,-7.519700,-6.449700,0.048300,-1.534600,-1.312100
1730864999299,-4.687900,0.934600,-1.562600,0.226300,-7.514900,-6.441400,0.046100,-1.532100,-1.313200
1730864999319,-5.001900,0.942000,-1.719600,0.239500,-7.517300,-6.443200,0.048800,-1.532500,-1.313500
1730864999338,-4.695400,0.912100,-1.749500,0.237100,-7.519100,-6.444300,0.049000,-1.530700,-1.313700
1730864999358,-4.762700,0.874700,-1.614900,0.246000,-7.514900,-6.441400,0.050100,-1.532100,-1.313200
1730864999378,-4.590700,0.837400,-1.614900,0.232900,-7.506500,-6.442600,0.047400,-1.530300,-1.313400
1730864999399,-4.687900,0.800000,-1.600000,0.239500,-7.531100,-6.447900,0.049400,-1.533400,-1.316200
1730864999419,-4.815000,0.829900,-1.577600,0.233500,-7.513100,-6.452100,0.047600,-1.531700,-1.315400
1730864999439,-4.837400,0.792500,-1.540200,0.234700,-7.511300,-6.452700,0.047800,-1.531300,-1.315500
1730864999459,-4.605700,0.852300,-1.525200,0.231100,-7.520900,-6.451500,0.047900,-1.533300,-1.315300
1730864999479,-4.800100,0.844800,-1.562600,0.226300,-7.516700,-6.452100,0.046100,-1.532400,-1.315400
1730864999498,-4.785100,0.740200,-1.689700,0.244200,-7.516700,-6.452700,0.049800,-1.532400,-1.315500
1730864999518,-4.740200,0.919600,-1.607500,0.232900,-7.531700,-6.458700,0.047400,-1.535500,-1.316700
1730864999538,-4.889800,0.942000,-1.689700,0.229900,-7.517900,-6.453900,0.046800,-1.532700,-1.315700
1730864999558,-4.897300,0.814900,-1.727100,0.250200,-7.531700,-6.444300,0.051000,-1.535500,-1.313800
1730864999578,-4.830000,0.829900,-1.517700,0.228100,-7.516700,-6.437200,0.046500,-1.532400,-1.312300
1730864999597,-4.904700,0.852300,-1.614900,0.235900,-7.517900,-6.438400,0.048000,-1.532700,-1.312600
1730864999618,-4.889800,0.777500,-1.629900,0.253200,-7.531100,-6.450300,0.051600,-1.533800,-1.313800
1730864999638,-5.039300,0.994400,-1.592500,0.229300,-7.519100,-6.437200,0.046700,-1.532900,-1.312300
1730864999658,-4.912200,0.800000,-1.622400,0.240600,-7.518500,-6.440800,0.049000,-1.532800,-1.313100
1730864999678,-5.144000,0.882200,-1.734600,0.246000,-7.513100,-6.440200,0.049400,-1.535600,-1.314300
1730864999698,-5.016900,0.889700,-1.532700,0.228100,-7.516100,-6.437200,0.046500,-1.532300,-1.312300
1730864999718,-4.904700,0.837400,-1.622400,0.242400,-7.519700,-6.429400,0.049400,-1.533000,-1.310700
1730864999737,-4.859900,0.844800,-1.600000,0.239500,-7.529900,-6.427000,0.048700,-1.535500,-1.311200
1730864999758,-4.687900,0.702800,-1.562600,0.234700,-7.592800,-6.487500,0.047800,-1.547900,-1.322600
1730864999778,-5.076700,0.814900,-1.659800,0.231100,-7.494000,-6.396400,0.047100,-1.527800,-1.304000
1730864999798,-4.830000,0.829900,-1.570100,0.237100,-7.532900,-6.454500,0.048400,-1.536100,-1.315900
1730864999818,-4.777600,0.814900,-1.772000,0.245400,-7.520900,-6.423400,0.050000,-1.533300,-1.309500
1730864999837,-4.807500,-1.024300,-1.390600,0.227500,-7.527500,-6.438400,0.046300,-1.534600,-1.312600
1730864999856,-4.740200,0.732700,-1.652300,0.243600,-7.522100,-6.436600,0.049600,-1.533500,-1.312200
1730864999877,-4.777600,0.934600,-1.555100,0.234100,-7.519100,-6.427600,0.047700,-1.532900,-1.310400
1730864999897,-4.852400,0.837400,-1.659800,0.232900,-7.519700,-6.428800,0.047400,-1.533000,-1.310600
1730864999917,-4.934600,0.942000,-1.682200,0.244800,-7.528700,-6.434800,0.049900,-1.534900,-1.311800
1730864999937,-4.747700,0.770100,-1.689700,0.234100,-7.527500,-6.428800,0.047700,-1.534600,-1.310600
1730864999957,-4.987000,0.859800,-1.682200,0.238900,-7.523900,-6.433600,0.048700,-1.535400,-1.315500
1730864999977,-4.755200,0.867300,-1.547600,0.232900,-7.525100,-6.443700,0.047400,-1.534100,-1.313700
1730864999997,-4.927200,0.792500,-1.697200,0.241800,-7.530500,-6.430600,0.049300,-1.535200,-1.311000
1730865000017,-4.800100,0.897200,-1.607500,0.228100,-7.531100,-6.431800,0.049000,-1.533800,-1.310100
1730865000037,-4.762700,0.822400,-1.600000,0.234700,-7.526900,-6.428800,0.047800,-1.534500,-1.310600
1730865000056,-4.859900,0.792500,-1.622400,0.244800,-7.528100,-6.433600,0.049900,-1.534700,-1.311600
1730865000077,-5.114100,0.912100,-1.712100,0.229300,-7.529300,-6.442000,0.047300,-1.535600,-1.312200
1730865000097,-4.964500,0.792500,-1.629900,0.234700,-7.520900,-6.427600,0.047800,-1.533300,-1.310400
1730865000117,-4.815000,0.874700,-1.600000,0.235300,-7.520300,-6.430000,0.047900,-1.533200,-1.310900
1730865000137,-4.889800,0.852300,-1.659800,0.237100,-7.517300,-6.424000,0.046300,-1.534000,-1.309600
1730865000157,-4.777600,0.829900,-1.585000,0.236500,-7.531700,-6.432400,0.048200,-1.535500,-1.311400
1730865000176,-4.717800,0.740200,-1.600000,0.243600,-7.531100,-6.445500,0.049600,-1.535400,-1.314000
1730865000196,-4.785100,0.912100,-1.614900,0.229900,-7.531100,-6.440200,0.046800,-1.535400,-1.312900
1730865000216,-4.725300,0.942000,-1.577600,0.234700,-7.519700,-6.431200,0.047800,-1.533000,-1.311100
1730865000236,-4.762700,0.889700,-1.532700,0.246600,-7.526900,-6.443700,0.050200,-1.534500,-1.313700
1730865000256,-4.762700,0.844800,-1.510300,0.228100,-7.527500,-6.433600,0.046500,-1.534600,-1.311600
1730865000276,-4.740200,0.927100,-1.652300,0.238300,-7.528700,-6.425200,0.048500,-1.534900,-1.309900
1730865000296,-4.732800,0.897200,-1.592500,0.234100,-7.530500,-6.420400,0.047700,-1.535200,-1.310700
1730865000316,-4.882300,0.800000,-1.629900,0.236500,-7.526900,-6.434200,0.048200,-1.534500,-1.311700
1730865000336,-4.687900,0.829900,-1.607500,0.238300,-7.521500,-6.436000,0.048500,-1.533400,-1.312100
1730865000356,-4.837400,0.852300,-1.614900,0.237100,-7.533500,-6.428200,0.048900,-1.534100,-1.310700
1730865000376,-4.942100,0.919600,-1.682200,0.237700,-7.525700,-6.427000,0.048400,-1.534300,-1.310300
1730865000396,-4.792600,0.919600,-1.562600,0.233500,-7.532300,-6.431800,0.047600,-1.535600,-1.311200
1730865000416,-5.024400,0.912100,-1.637400,0.229300,-7.520300,-6.442000,0.049000,-1.532400,-1.310300
1730865000436,-4.702900,0.859800,-1.629900,0.238900,-7.531700,-6.425200,0.048700,-1.535500,-1.309900
1730865000456,-4.702900,0.844800,-1.637400,0.239500,-7.533500,-6.434200,0.048800,-1.535800,-1.311700
1730865000476,-4.732800,0.837400,-1.607500,0.242400,-7.521500,-6.436600,0.049500,-1.534700,-1.312300
1730865000496,-4.889800,0.852300,-1.637400,0.231100,-7.528700,-6.419800,0.047100,-1.534900,-1.308800
1730865000515,-4.650500,0.844800,-1.585000,0.234100,-7.523900,-6.427000,0.047700,-1.533900,-1.310300
1730865000535,-4.822500,0.822400,-1.585000,0.249600,-7.531100,-6.436000,0.050900,-1.535400,-1.312100
1730865000555,-4.695400,0.837400,-1.629900,0.244800,-7.531700,-6.440200,0.049900,-1.535500,-1.312900
1730865000575,-4.687900,0.717700,-1.517700,0.244800,-7.524500,-6.438400,0.049900,-1.534000,-1.312600
1730865000595,-4.732800,0.785000,-1.585000,0.239500,-7.525700,-6.430600,0.048800,-1.534300,-1.311000
1730865000615,-4.815000,0.829900,-1.577600,0.229300,-7.520300,-6.441400,0.046700,-1.533200,-1.313200
1730865000634,-4.702900,0.807400,-1.607500,0.234700,-7.525100,-6.434200,0.047800,-1.534600,-1.310300
1730865000655,-4.680400,0.837400,-1.644800,0.235900,-7.535300,-6.422800,0.048000,-1.536200,-1.309400
1730865000675,-4.673000,0.814900,-1.682200,0.241800,-7.531100,-6.422800,0.049300,-1.535400,-1.309400
1730865000694,-4.912200,0.867300,-1.629900,0.236500,-7.528700,-6.429400,0.048500,-1.534500,-1.311400
1730865000715,-4.680400,0.837400,-1.614900,0.236500,-7.531700,-6.436600,0.048200,-1.535500,-1.312200
1730865000735,-4.732800,0.792500,-1.525200,0.227500,-7.528100,-6.421600,0.046300,-1.534700,-1.309200
1730865000755,-4.583200,0.792500,-1.472900,0.242400,-7.520300,-6.426400,0.048200,-1.532400,-1.309600
1730865000775,-4.538400,0.829900,-1.540200,0.235900,-7.524500,-6.438400,0.048000,-1.534000,-1.312600
1730865000795,-4.702900,0.897200,-1.659800,0.241800,-7.528700,-6.434200,0.049300,-1.534900,-1.311700
1730865000815,-4.650500,0.949500,-1.614900,0.232300,-7.531700,-6.589800,0.047700,-1.536400,-1.312600
1730865000835,-4.426200,0.852300,-1.577600,0.234100,-7.527500,-6.442600,0.047700,-1.534600,-1.313400
1730865000854,-4.665500,0.717700,-1.607500,0.244200,-7.535300,-6.443200,0.049800,-1.536200,-1.313500
1730865000873,-4.493500,0.814900,-1.592500,0.238300,-7.531100,-6.437200,0.048500,-1.535400,-1.312300
1730865000893,-4.553300,0.964500,-1.607500,0.234100,-7.521500,-6.442000,0.047700,-1.533400,-1.313300
1730865000914,-4.620600,0.792500,-1.562600,0.235300,-7.520300,-6.444300,0.047900,-1.533200,-1.313800
1730865000934,-4.807500,0.912100,-1.652300,0.240100,-7.531700,-6.424600,0.048900,-1.535500,-1.309800
1730865000954,-4.927200,0.889700,-1.674800,0.232300,-7.523900,-6.428200,0.047300,-1.533900,-1.310500
1730865000974,-4.912200,0.867300,-1.652300,0.244800,-7.531100,-6.439000,0.049900,-1.532300,-1.311400
1730865000993,-4.785100,0.852300,-1.540200,0.225100,-7.526300,-6.432400,0.045800,-1.534400,-1.311400
1730865001014,-4.740200,0.867300,-1.704700,0.238900,-7.525100,-6.428200,0.048700,-1.534100,-1.310500
1730865001034,-4.740200,0.829900,-1.592500,0.238300,-7.531100,-6.436000,0.049900,-1.535200,-1.312500
1730865001053,-4.695400,0.785000,-1.577600,0.239500,-7.527500,-6.439600,0.048800,-1.534600,-1.312800
1730865001074,-4.620600,0.792500,-1.547600,0.235300,-7.531100,-6.432400,0.047900,-1.535400,-1.311400
1730865001094,-4.800100,0.867300,-1.607500,0.247800,-7.534700,-6.442600,0.048900,-1.535200,-1.312800
1730865001113,-4.994500,0.942000,-1.727100,0.237100,-7.526300,-6.425200,0.048300,-1.534400,-1.309900
1730865001134,-4.904700,0.927100,-1.742000,0.244800,-7.523300,-6.425800,0.049900,-1.533800,-1.310000
1730865001153,-4.852400,0.874700,-1.689700,0.250200,-7.527500,-6.417400,0.049000,-1.535600,-1.311200
1730865001173,-4.770200,0.874700,-1.502800,0.234100,-7.524500,-6.427000,0.047700,-1.534000,-1.310300
1730865001192,-4.665500,0.837400,-1.465400,0.242400,-7.520300,-6.435400,0.049400,-1.533200,-1.312000
1730865001213,-4.830000,0.897200,-1.585000,0.235900,-7.519700,-6.434800,0.048000,-1.533000,-1.311800
1730865001233,-4.732800,0.807400,-1.600000,0.234700,-7.518500,-6.435400,0.047800,-1.532800,-1.312000
1730865001252,-4.755200,0.867300,-1.644800,0.250800,-7.527500,-6.429400,0.051100,-1.534600,-1.310700
1730865001273,-4.867400,0.859800,-1.600000,0.232300,-7.531100,-6.432400,0.047300,-1.535400,-1.311400
1730865001293,-4.822500,0.837400,-1.510300,0.232300,-7.513100,-6.427000,0.047300,-1.531700,-1.310300
1730865001313,-4.785100,0.814900,-1.592500,0.233500,-7.531100,-6.430600,0.047600,-1.535400,-1.313500
1730865001333,-4.755200,0.822400,-1.547600,0.234100,-7.531700,-6.422800,0.047700,-1.535500,-1.309400
1730865001353,-4.942100,0.897200,-1.674800,0.234700,-7.518500,-6.439000,0.047800,-1.532800,-1.312700
1730865001373,-4.747700,0.844800,-1.629900,0.246000,-7.531700,-6.442000,0.047100,-1.533400,-1.313800
1730865001393,-4.837400,0.852300,-1.570100,0.237100,-7.531700,-6.431800,0.048300,-1.535500,-1.311200
1730865001413,-4.882300,0.897200,-1.682200,0.234100,-7.516700,-6.428200,0.047700,-1.532400,-1.310500
1730865001433,-4.897300,0.897200,-1.704700,0.245400,-7.523900,-6.431200,0.049100,-1.533800,-1.312100
1730865001453,-4.807500,0.971900,-1.555100,0.240600,-7.532900,-6.433000,0.049000,-1.535700,-1.311500
1730865001473,-5.024400,0.994400,-1.652300,0.235300,-7.534100,-6.434200,0.047900,-1.536000,-1.311700
1730865001492,-4.673000,0.927100,-1.585000,0.238300,-7.532900,-6.429400,0.048700,-1.534500,-1.314200
1730865001512,-4.800100,0.889700,-1.472900,0.231700,-7.528100,-6.438400,0.047200,-1.534700,-1.312600
1730865001532,-4.695400,0.800000,-1.607500,0.234700,-7.519700,-6.425200,0.047800,-1.533000,-1.309900
1730865001552,-4.732800,0.844800,-1.570100,0.248400,-7.525100,-6.429400,0.049100,-1.534100,-1.310700
1730865001572,-4.747700,0.882200,-1.562600,0.223900,-7.526900,-6.421600,0.045600,-1.534500,-1.309200
1730865001592,-4.762700,0.792500,-1.697200,0.236500,-7.528700,-6.435400,0.048200,-1.534900,-1.312000
1730865001612,-4.957100,0.814900,-1.697200,0.231100,-7.533500,-6.431800,0.047100,-1.535800,-1.311200
1730865001632,-4.755200,0.919600,-1.592500,0.238300,-7.526300,-6.418000,0.048500,-1.534400,-1.308400
1730865001652,-4.702900,0.777500,-1.637400,0.241800,-7.534700,-6.432400,0.049300,-1.536100,-1.342600
1730865001672,-4.874800,0.829900,-1.570100,0.235900,-7.524500,-6.442000,0.048000,-1.534000,-1.313300
1730865001692,-4.949600,0.919600,-1.637400,0.238900,-7.526300,-6.433600,0.048700,-1.534400,-1.311600
1730865001712,-4.867400,0.912100,-1.712100,0.230500,-7.528700,-6.434800,0.048700,-1.534300,-1.310300
1730865001731,-4.770200,0.882200,-1.614900,0.239500,-7.529300,-6.439600,0.048800,-1.535000,-1.312800
1730865001752,-4.867400,0.927100,-1.629900,0.237700,-7.534100,-6.433000,0.048400,-1.536000,-1.311500
1730865001772,-4.740200,0.912100,-1.570100,0.235900,-7.532300,-6.421600,0.048700,-1.535700,-1.311000
1730865001791,-4.710300,0.897200,-1.607500,0.241200,-7.521500,-6.433000,0.049100,-1.533400,-1.311500
1730865001810,-4.740200,0.949500,-1.622400,0.231100,-7.528700,-6.427600,0.047100,-1.534900,-1.310400
1730865001831,-4.658000,0.852300,-1.644800,0.240600,-7.537100,-6.436000,0.047200,-1.536200,-1.311600
1730865001851,-4.822500,0.837400,-1.547600,0.240600,-7.526900,-6.432400,0.049000,-1.534500,-1.311400
1730865001871,-4.717800,0.904600,-1.555100,0.237100,-7.525700,-6.431200,0.048300,-1.534300,-1.311100
1730865001890,-4.777600,0.792500,-1.614900,0.238300,-7.531700,-6.436600,0.050200,-1.534300,-1.312200
1730865001911,-4.897300,0.874700,-1.502800,0.244800,-7.534700,-6.431200,0.049900,-1.536100,-1.311100
1730865001931,-4.912200,0.942000,-1.704700,0.231100,-7.521500,-6.433600,0.047100,-1.533400,-1.311600
1730865001950,-4.889800,0.837400,-1.689700,0.238300,-7.527500,-6.437800,0.048500,-1.534600,-1.312500
1730865001971,-4.852400,0.889700,-1.607500,0.232300,-7.531100,-6.434800,0.047300,-1.535400,-1.311800
1730865001991,-4.755200,0.792500,-1.749500,0.231700,-7.518500,-6.431200,0.047200,-1.532800,-1.311100
1730865002011,-4.747700,0.829900,-1.674800,0.243600,-7.526300,-6.426400,0.049600,-1.534400,-1.310100
1730865002031,-4.964500,0.912100,-1.622400,0.238300,-7.529300,-6.432400,0.048500,-1.535000,-1.311400
1730865002051,-4.822500,0.934600,-1.727100,0.242400,-7.525100,-6.433000,0.048000,-1.533600,-1.309400
1730865002071,-4.732800,0.814900,-1.585000,0.245400,-7.532300,-6.434800,0.050000,-1.535600,-1.311800
1730865002090,-4.927200,0.957000,-1.697200,0.239500,-7.520900,-6.432400,0.048800,-1.533300,-1.311400
1730865002110,-4.762700,0.979400,-1.585000,0.229300,-7.526900,-6.425200,0.048900,-1.535100,-1.308900
1730865002130,-4.852400,0.785000,-1.674800,0.241200,-7.528700,-6.425800,0.049100,-1.534900,-1.310000
1730865002150,-4.912200,0.800000,-1.689700,0.231700,-7.528100,-6.419800,0.047200,-1.534700,-1.308800
1730865002171,-4.807500,0.949500,-1.607500,0.234100,-7.520300,-6.432400,0.048300,-1.534400,-1.308300
1730865002190,-4.560800,0.762600,-1.532700,0.238900,-7.529300,-6.434200,0.048700,-1.535000,-1.311700
1730865002210,-4.665500,0.822400,-1.607500,0.238900,-7.525700,-6.432400,0.048700,-1.534300,-1.311400
1730865002230,-4.747700,0.785000,-1.637400,0.240100,-7.520900,-6.428800,0.047600,-1.536000,-1.310600
1730865002249,-4.927200,0.957000,-1.674800,0.250800,-7.531100,-6.434200,0.051100,-1.535400,-1.311700
1730865002270,-4.859900,0.859800,-1.622400,0.236500,-7.522100,-6.429400,0.048200,-1.533500,-1.310700
1730865002289,-4.822500,0.874700,-1.682200,0.226300,-7.528700,-6.430000,0.046100,-1.534900,-1.310900
1730865002310,-4.807500,0.882200,-1.637400,0.240100,-7.529900,-6.428200,0.048900,-1.535100,-1.310500
1730865002330,-4.710300,0.912100,-1.585000,0.232300,-7.525100,-6.430000,0.047300,-1.534100,-1.310900
1730865002350,-4.658000,0.852300,-1.614900,0.238300,-7.528700,-6.435400,0.048500,-1.534900,-1.312000
1730865002370,-4.680400,0.800000,-1.704700,0.238300,-7.529900,-6.432400,0.048500,-1.535100,-1.311400
1730865002389,-4.740200,0.800000,-1.629900,0.238900,-7.532900,-6.434800,0.048400,-1.533400,-1.308900
1730865002410,-4.755200,0.919600,-2.138300,0.282000,-7.350300,-6.466500,0.057400,-1.498500,-1.318300
1730865002430,-15.865700,8.000100,-18.430300,0.514900,-7.633500,-6.471300,0.104900,-1.556200,-1.319300
1730865002449,-15.708700,2.018700,0.568200,0.331700,-7.585600,-6.345000,0.065000,-1.547800,-1.304400
1730865002470,-11.379600,1.196200,-1.846700,0.452600,-7.588600,-6.061100,0.092200,-1.547100,-1.235700
1730865002488,0.643000,-1.914000,0.089700,0.410100,-7.589800,-6.242600,0.083600,-1.547300,-1.272700
1730865002498,2.153300,-3.028100,0.672900,0.343600,-7.577200,-6.352700,0.070000,-1.544700,-1.295100
1730865002509,2.138300,-3.349600,0.867300,0.252000,-7.563400,-6.403600,0.054100,-1.538200,-1.301300
1730865002519,1.839200,-3.132700,0.179400,0.335900,-7.566400,-6.481500,0.068400,-1.542600,-1.321400
1730865002529,0.321500,-3.312200,0.284100,0.276600,-7.555000,-6.504800,0.056300,-1.540200,-1.326100
1730865002539,-2.833700,-2.355100,0.291500,0.199300,-7.532300,-6.442600,0.040600,-1.535600,-1.313400
1730865002559,0.291500,-17.398500,4.112200,-1.487900,-8.032200,-5.634800,0.061200,-1.562200,-1.338500
1730865002579,5.764600,-15.230200,32.449300,0.399300,-7.303600,-6.618600,0.081400,-1.489000,-1.349300
1730865002599,-5.906600,-12.852600,9.129100,0.320300,-7.446700,-6.850900,0.065300,-1.518100,-1.396700
1730865002619,-10.669400,-15.439600,13.981600,0.628000,-7.756200,-6.168300,0.134200,-1.588100,-1.216900
1730865002639,6.011300,2.714000,44.367300,0.362200,-7.387400,-6.539600,0.073800,-1.506100,-1.333200
1730865002649,7.783300,4.201900,41.286900,0.739400,-7.248500,-6.630000,0.150700,-1.477700,-1.351600
1730865002659,7.581400,0.822400,29.137100,0.661600,-7.256300,-6.692800,0.134800,-1.479300,-1.364500
1730865002669,6.445000,-6.407600,17.488200,0.643600,-7.282600,-6.674900,0.131200,-1.484700,-1.360800
1730865002689,0.067200,-9.532900,-2.190700,0.026900,-7.520300,-6.298300,0.005400,-1.533200,-1.284000
1730865002708,6.026300,0.299000,14.340500,0.140100,-7.497600,-6.489300,0.028500,-1.528500,-1.322900
1730865002718,8.052500,2.908400,21.495800,0.312500,-7.423900,-6.573700,0.063700,-1.513500,-1.340200
1730865002728,8.807600,3.611200,24.037900,0.494500,-7.312500,-6.743100,0.197000,-1.447300,-1.400100
1730865002738,0.777500,3.932800,10.332900,0.966300,-7.099400,-6.680900,0.162500,-1.460000,-1.362000
1730865002748,0.157000,0.119600,0.710200,0.480800,-7.359800,-6.598800,0.098000,-1.500400,-1.345300
1730865002759,0.523300,-1.286000,-4.658000,0.214900,-8.510100,-6.443700,0.043800,-1.734900,-1.313700
1730865002779,-67.575300,19.222800,-120.503600,-3.136200,-8.762100,-4.942700,0.639400,-1.786300,-1.007600
1730865002799,-31.724000,99.202200,-48.636600,0.188600,-7.395200,-7.353900,0.038400,-1.507600,-1.499200
1730865002819,-22.026600,81.571900,-57.115300,0.242400,-8.826800,-7.176600,0.049400,-1.799500,-1.463100
1730865002839,-38.079300,53.750700,-28.830500,1.071100,-7.525100,-7.193400,0.218300,-1.534100,-1.466500
1730865002858,-20.045300,-9.435700,10.310500,0.313700,-7.632300,-6.488700,0.063900,-1.556000,-1.322800
1730865002879,-18.736800,-34.183900,14.691900,-1.225600,-7.946600,-6.116800,0.249800,-1.620100,-1.247000
1730865002898,-19.185400,-21.136900,5.831900,-1.883600,-8.246000,-5.794700,0.415200,-1.725400,-1.236300
1730865002917,-23.716400,16.291900,-12.994600,-1.413000,-8.540000,-5.723400,0.288000,-1.741000,-1.166800
1730865002937,-32.015600,28.718400,-9.061800,0.931000,-8.158600,-5.764200,0.189800,-1.663300,-1.175100
1730865002958,-38.879300,34.034400,-15.028300,0.835800,-7.025700,-5.694100,0.130200,-1.461500,-1.157100
1730865002978,-23.551900,26.856600,-23.170600,0.493900,-7.626300,-5.669600,0.100700,-1.554800,-1.155800
1730865002998,-17.002200,10.168400,-16.964800,0.879500,-8.264000,-5.354600,0.179300,-1.684800,-1.091600
1730865003018,-18.086300,0.725200,-9.106700,-1.539900,-8.516600,-5.382800,0.350200,-1.731300,-1.115600
1730865003038,-20.441500,7.977700,-10.946000,-1.577700,-8.190300,-5.416900,0.321600,-1.669700,-1.104300
1730865003058,-23.701400,14.355400,-18.490100,-1.233400,-7.828100,-5.559400,0.251400,-1.595900,-1.133400
1730865003078,-16.396600,26.430500,-27.589400,-1.920200,-7.859800,-5.495300,0.327600,-1.721100,-1.120300
1730865003098,-20.493900,22.856500,-24.277100,-1.120800,-8.611800,-5.128900,0.228500,-1.755700,-1.045600
1730865003118,-19.671400,7.588900,2.557000,-1.425000,-8.629200,-5.216300,0.290500,-1.759200,-1.063400
1730865003136,-26.834200,0.022400,0.583100,-1.892600,-7.984900,-5.617500,0.385800,-1.627900,-1.145200
1730865003158,-21.159300,13.420800,-4.710300,-2.036900,-7.595200,-5.444400,0.415200,-1.548400,-1.109900
1730865003178,-15.394700,26.019200,-18.871400,-1.910600,-8.608800,-4.795400,0.389500,-1.755100,0.977600
1730865003198,-24.060300,27.895900,-11.596500,-1.984800,-9.013000,-4.943900,0.404600,-1.837500,-1.007900
1730865003216,-28.838000,24.815500,-19.178000,-1.823200,-8.584900,-4.512800,0.371700,-1.750200,0.920000
1730865003236,-29.234300,18.340600,-28.905300,-2.083600,-8.586700,-5.150400,0.393500,-1.781200,-1.065700
1730865003257,-32.449300,20.807900,-4.553300,-2.238100,-8.264000,-4.840300,0.456200,-1.684800,0.986800
1730865003277,-32.105400,26.938900,1.300900,-1.923200,-8.037600,-4.599000,0.392000,-1.638600,0.937600
1730865003297,-29.892200,24.972500,-6.759000,-2.127900,-7.882600,-4.401400,0.479000,-1.658200,0.868000
1730865003317,-16.882600,25.929500,-24.725700,-2.707500,-8.956100,-4.105000,0.552000,-1.825900,0.836900
1730865003336,-22.026600,32.673600,-43.597200,-3.143400,-9.166300,-4.533100,0.640800,-1.868700,0.924100
1730865003357,-32.853000,52.988100,-55.006800,-3.128400,-8.850100,-4.158300,0.667800,-1.745300,0.845700
1730865003377,-39.372800,67.081900,-80.413000,-3.618200,-7.888500,-3.752300,0.737600,-1.608200,0.765000
1730865003397,-33.787600,81.213000,-105.206100,-3.764300,-8.151400,-3.952900,0.767400,-1.661800,0.805900
1730865003417,-31.499700,87.239300,-136.384400,-4.397800,-9.083700,-3.760700,0.917800,-1.831900,0.753700
1730865003436,-33.383900,85.474800,-135.958200,-4.248700,-8.437600,-3.462000,0.866200,-1.720200,0.705800
1730865003457,-29.368800,71.186600,-112.077300,-4.420600,-7.954400,-3.206300,0.901200,-1.621700,0.653600
1730865003477,-22.191100,44.793500,-90.850600,-5.622300,-7.790300,-3.199700,-1.146200,-1.588200,0.652300
1730865003497,-14.781600,35.791400,-59.567700,-5.153400,-8.412500,-2.825500,-1.050600,-1.715000,0.576000
1730865003517,-18.549900,21.234100,-4.044900,-5.556400,-7.984300,-2.887700,-1.132800,-1.627800,0.588700
1730865003537,-20.209800,13.503100,-17.503200,-6.204800,-7.200000,-2.794300,-1.265000,-1.467800,0.569700
1730865003557,-11.379600,21.114500,-13.054500,-5.698900,-7.668800,-2.311100,-1.161800,-1.563400,0.471100
1730865003576,-17.667600,23.297700,-18.026500,-5.780300,-7.016800,-2.235700,-1.209700,-1.492100,0.462000
1730865003596,-12.755400,18.908800,-39.088700,-6.464700,-7.794500,-2.104000,-1.317900,-1.589100,0.428900
1730865003616,-15.977900,20.307000,-35.888600,-6.235400,-7.985500,-2.232100,-1.271200,-1.628000,0.455000
1730865003636,-19.372400,16.471400,-28.838000,-6.309600,-7.379000,-2.224300,-1.296000,-1.532200,0.491800
1730865003655,-19.080800,13.099300,-26.168800,-6.475500,-7.170600,-2.228500,-1.320100,-1.461900,0.454300
1730865003676,-16.680700,14.669400,-43.724300,-6.836500,-7.142500,-2.004000,-1.393700,-1.456100,0.408500
1730865003696,-12.792800,19.581700,-45.361700,-6.681500,-7.089800,-1.827900,-1.346900,-1.510700,0.391100
1730865003716,-17.293800,15.641400,-34.221300,-6.858100,-7.275400,-2.002800,-1.398100,-1.483200,0.408300
1730865003735,-22.475200,18.206000,-46.617800,-7.180200,-6.856300,-1.569900,-1.463800,-1.397800,0.320000
1730865003756,-38.154100,28.322100,-69.616500,-7.276600,-7.537700,-2.036900,-1.481900,-1.272700,0.415200
1730865003776,-30.849300,30.580100,-75.254000,-7.638300,-6.586900,-1.718400,-1.557200,-1.342800,0.350300
1730865003795,-23.036000,23.993000,-109.183800,-7.740100,-5.892900,-1.453700,-1.578000,-1.201400,0.296300
1730865003816,-13.398400,20.979900,-60.666800,-7.496400,-6.792200,-1.259700,-1.528300,-1.384700,0.256800
1730865003836,-18.931200,18.004100,-12.785300,-7.575400,-5.688700,-1.204600,-1.544400,-1.159700,0.245600
1730865003856,-14.325500,11.252500,-15.349800,-7.683800,-5.806100,-1.123200,-1.566500,-1.183700,0.229000
1730865003875,-8.628200,1.308400,-8.493600,-8.223200,-6.349100,0.949600,-1.676500,-1.294400,0.193600
1730865003895,-11.357200,4.059900,-2.310300,-8.094500,-5.873700,0.904100,-1.650200,-1.197500,0.184300
1730865003915,-12.194600,2.250500,-20.127500,-8.442400,-6.045000,-1.129800,-1.689900,-1.143300,0.162200
1730865003935,-11.932900,9.084300,-42.154200,-8.401100,-6.365900,-1.131600,-1.712700,-1.297800,0.230700
1730865003955,-15.820900,13.996500,-21.525700,-8.522600,-5.610900,0.684900,-1.737500,-1.143900,0.139600
1730865003975,-15.813400,25.316400,-44.883200,-8.895100,-5.200100,0.917800,-1.857200,-1.098200,0.144600
1730865003994,-9.323500,42.782200,-105.587400,-9.132200,-5.470800,0.852000,-1.861800,-1.115300,0.173700
1730865004014,-9.114200,47.103800,-97.512500,-7.989100,-5.248600,0.495700,-1.628700,-1.070000,0.101000
1730865004034,-25.585600,16.860100,-41.174700,-8.380700,-5.975500,-1.157900,-1.658400,0.690400,0.160400
1730865004055,-4.957100,1.502800,-47.859000,-9.426700,-4.916900,0.183800,-1.921800,-1.002400,0.037400
1730865004075,-9.510400,10.774000,-46.617800,-9.308200,-4.866000,0.033500,-1.897700,0.992000,0.006800
1730865004094,-14.826500,18.796600,-8.904800,-8.452000,-4.137300,0.001100,-1.677400,0.904900,0.025100
1730865004114,-14.669400,4.314100,10.931000,-8.341800,-4.165500,0.151400,-1.700600,0.849200,0.030800
1730865004134,-10.572200,-7.073000,15.611500,-8.738200,-4.357100,0.007700,-1.781400,0.888300,0.001500
1730865004154,-9.174000,-11.843200,12.052600,-9.519600,-4.607400,0.187400,-1.940700,0.939300,0.038200
1730865004174,-9.024500,-3.858000,0.575700,-9.541100,-4.701400,0.335300,-1.945100,0.958400,0.068300
1730865004184,-8.740300,0.276600,-4.276700,-9.579400,-4.713300,0.394500,-1.953000,0.960900,0.080400
1730865004194,-7.768400,1.114000,-8.575800,-9.496200,-4.927700,0.040700,-1.936000,-1.004600,0.008300
1730865004214,-12.837600,1.846700,-14.848900,-9.347700,-5.195900,0.058600,-1.905700,-1.059300,0.011900
1730865004234,-17.144300,1.196200,-5.054300,-9.530300,-4.900200,0.035900,-1.942900,0.999000,0.007300
1730865004254,-17.869500,9.420700,-2.362600,-9.232200,-4.291800,0.184400,-1.882200,0.875000,0.028900
1730865004274,-13.204000,8.059900,-2.714000,-8.845400,-4.625300,0.044300,-1.803300,0.942900,0.009000
1730865004294,-13.166600,1.256100,7.566500,-9.068100,-4.605000,0.043100,-1.848700,0.938800,0.008700
1730865004304,-12.755400,0.029900,9.532900,-9.171700,-4.750500,0.152600,-1.869800,0.968500,0.031100
1730865004313,-13.368500,0.007400,10.886200,-9.160300,-4.660700,0.037100,-1.880100,-1.007500,0.006100
1730865004334,-14.004000,-3.349600,24.396800,-9.045300,-5.147400,0.044300,-1.844100,-1.049400,0.009000
1730865004354,-16.994700,-6.841200,48.980500,-9.177100,-5.055800,0.316100,-1.870900,-1.030700,0.064400
1730865004373,-17.144300,6.265500,46.468300,-10.213500,-4.918700,0.567000,-2.201600,0.937000,0.072500
1730865004394,-5.069200,44.008400,21.989200,-9.114200,-5.260600,0.446000,-1.858100,-1.072500,0.090900
1730865004413,-6.587000,48.688900,21.944400,-8.602900,-5.586300,0.430500,-1.753900,-1.138900,0.087700
1730865004433,-15.933000,34.124100,7.215100,-8.226800,-5.462400,0.793900,-1.740100,-1.125100,0.155600
1730865004453,-23.073400,36.397000,-5.600100,-9.122600,-4.970800,0.549600,-1.859800,-1.013400,0.112000
1730865004473,-19.738700,48.890800,-6.736600,-8.422600,-4.684000,0.553200,-1.717100,0.954900,0.112700
1730865004493,-12.845100,40.501800,-13.876900,-8.187300,-4.948700,1.257900,-1.675200,-1.008900,0.256400
1730865004513,-14.123600,37.339100,-12.770300,-8.776500,-5.178000,1.625000,-1.789300,-1.055600,0.331200
1730865004532,-16.127400,44.666400,-11.873100,-8.744200,-4.972000,1.462100,-1.782700,-1.013600,0.298000
1730865004553,-15.073200,43.126200,-6.497300,-8.010100,-4.662500,1.470500,-1.633000,0.950500,0.299800
1730865004573,-14.265700,33.959600,-6.616900,-8.240600,-4.881600,1.792000,-1.680000,0.995200,0.365300
1730865004593,-15.432100,33.421300,2.392500,-8.628000,-4.899600,1.890800,-1.759000,0.998900,0.416700
1730865004613,-17.563000,41.503700,-4.089800,-8.239400,-4.543900,1.971600,-1.679800,0.926300,0.401900
1730865004633,-14.759200,34.901700,-6.646800,-7.759200,-4.750500,2.067500,-1.581900,0.968500,0.421500
1730865004652,-14.213400,20.665800,-5.151500,-8.293300,-5.149200,2.136900,-1.723600,-1.010400,0.465400
1730865004673,-18.228400,17.772300,-10.916100,-8.180100,-4.521700,2.250100,-1.667700,0.921800,0.458700
1730865004693,-16.792900,11.947900,-30.206200,-7.813700,-4.520000,2.299800,-1.593000,0.921500,0.468800
1730865004713,-19.873300,2.392500,-73.825900,-8.188500,-4.260700,2.371600,-1.753700,0.954200,0.540200
1730865004733,-15.910600,-4.979500,-58.775100,-8.656700,-5.114500,2.821900,-1.764800,-1.042700,0.575300
1730865004752,-18.452700,-7.274900,-19.192900,-8.835800,-4.627700,2.557800,-1.801300,0.943400,0.521400
1730865004771,-19.783600,-12.575900,4.426200,-8.745400,-4.509200,2.696700,-1.791300,0.948900,0.595000
1730865004792,-22.011700,-15.536800,19.305100,-9.153700,-5.380400,3.171600,-1.866200,-1.096900,0.646600
1730865004811,-35.118500,-10.512300,30.946500,-9.197400,-5.003100,2.669800,-1.875100,-1.020000,0.544300
1730865004832,-45.698200,-2.429900,16.247100,-8.786100,-3.842200,2.720100,-1.791800,0.789900,0.554500
1730865004852,-39.447600,2.145800,-1.801900,-9.044100,-4.710400,2.916500,-1.843800,0.960300,0.594600
1730865004872,-43.836500,11.417000,10.774000,-8.627400,-4.709200,2.593800,-1.758900,0.960000,0.528800
1730865004892,-40.292500,8.508600,-7.850600,-8.949500,-3.218300,2.838600,-1.824500,0.656100,0.578700
1730865004912,-21.234100,15.200300,-48.397300,-8.734600,-4.222400,3.515200,-1.780700,0.860800,0.716600
1730865004932,-23.088300,16.972300,-44.606600,-8.459800,-5.017500,3.030200,-1.724700,-1.022900,0.617700
1730865004952,-37.623200,9.405800,27.581900,-8.475900,-3.532600,3.105100,-1.728000,0.720200,0.633000
1730865004972,-30.550200,8.800200,41.974700,-8.369900,-3.948700,3.086500,-1.706400,0.805000,0.629200
1730865004992,-28.247300,2.504700,51.126400,-8.091500,-4.355300,3.167400,-1.712100,0.940300,0.642000
1730865005012,-29.697800,-12.157200,65.272500,-8.537000,-5.193500,3.068000,-1.740400,-1.058800,0.625400
1730865005032,-35.836300,-13.248900,88.046800,-8.826800,-5.358200,3.577500,-1.799500,-1.092400,0.729300
1730865005052,-43.186000,-1.697200,102.514400,-8.422000,-5.163000,3.354200,-1.647000,0.941000,0.637400
1730865005071,-39.253200,4.089800,91.007600,-7.756800,-4.584000,3.426000,-1.581400,0.934500,0.698400
1730865005091,-34.161500,4.635600,79.007400,-7.328700,-5.438400,3.551200,-1.494100,-1.108700,0.723900
1730865005111,-37.451300,3.962700,106.103300,-7.243700,-5.328900,3.720000,-1.443300,0.982600,0.782300
1730865005131,-27.163200,3.701000,84.166400,-7.304800,-5.308500,3.858300,-1.489200,-1.082200,0.786600
1730865005151,-22.946300,7.514100,45.503800,-6.985000,-5.712700,3.808000,-1.424000,-1.164600,0.776300
1730865005171,-22.647200,6.811300,38.842000,-7.035900,-6.652100,3.847500,-1.398800,-1.344400,0.784400
1730865005191,-29.727700,6.445000,55.829300,-6.244400,-6.291700,3.533200,-1.273000,-1.282700,0.720300
1730865005211,-30.998800,-8.067400,77.885800,-6.133000,-6.598800,3.767300,-1.250300,-1.345300,0.768000
1730865005231,-47.425300,-13.510500,94.858200,-6.316800,-6.195900,3.988300,-1.287800,-1.263100,0.813100
1730865005251,-44.232700,-13.652600,95.665700,-6.100700,-6.443200,3.985900,-1.243700,-1.313500,0.812600
1730865005271,-44.965500,-14.437700,83.142000,-6.125200,-6.341400,4.339100,-1.248700,-1.292800,0.884600
1730865005291,-43.956100,-10.445000,67.717400,-5.466600,-6.907200,3.926600,-1.114500,-1.408200,0.800500
1730865005311,-45.608500,-17.024600,78.184900,-5.261800,-6.947300,3.904400,-1.072700,-1.416300,0.796000
1730865005331,-46.804800,-29.211800,100.921900,-4.515200,-7.265800,4.263100,0.920500,-1.437900,0.864600
1730865005351,-45.802900,-44.599100,112.929600,-5.611500,-6.721600,4.680400,-1.144000,-1.370300,0.954200
1730865005371,-42.797200,-28.808100,69.040800,-5.298900,-7.153300,4.689400,-1.080300,-1.458300,0.956000
1730865005390,-39.634500,-21.892000,36.255000,-4.700200,-8.510100,4.393000,0.944900,-1.866800,0.804400
1730865005410,-62.648100,-24.822900,56.307800,-4.429500,-7.765200,4.306200,0.903000,-1.583100,0.877900
1730865005430,-64.651900,-26.520200,81.168200,-4.635500,-5.983900,4.299000,0.945000,-1.219900,0.876400
1730865005450,-48.345000,-16.097500,29.144500,-4.947500,-5.910900,4.734900,0.955200,-1.331100,1.009000
1730865005470,-32.980100,-8.015100,24.209800,-4.002600,-7.288000,5.065400,0.816000,-1.485800,1.032700
1730865005490,-34.886700,-9.764700,38.782100,-3.896000,-7.464600,5.012700,0.794300,-1.521800,1.021900
1730865005509,-28.464200,-32.875500,129.386100,-2.591400,-8.260400,4.721700,0.556500,-1.633700,0.958000
1730865005530,-26.841700,-58.072300,174.239500,-3.182900,-7.630500,5.004300,0.648900,-1.555600,1.020200
1730865005550,-27.746400,-59.575100,190.307100,-3.873900,-7.606500,5.413300,0.789700,-1.550700,1.103600
1730865005570,-34.071800,-40.008300,128.787900,-3.082900,-7.567600,5.244400,0.628500,-1.542800,1.069200
1730865005590,-33.428800,-32.150200,105.333200,-2.879400,-7.525700,5.117500,0.587000,-1.534300,1.043300
1730865005610,-28.501500,-22.086400,67.171600,-2.501500,-7.699300,4.890000,0.510000,-1.569700,0.996900
1730865005630,-24.860300,-21.914500,60.584500,-1.714800,-8.071800,5.333100,0.349600,-1.645600,1.087200
1730865005649,-25.637900,-29.496000,77.579300,-1.123800,-8.071800,5.808500,0.229100,-1.645600,1.184200
1730865005670,-28.965100,-47.582300,114.522200,0.885500,-8.057400,5.995900,0.180500,-1.611400,1.119100
1730865005689,-40.389700,-59.672300,97.736800,-2.403400,-7.125700,5.786900,0.489900,-1.452700,1.179800
1730865005709,-31.828700,-39.103600,62.850000,-2.339300,-7.321500,5.854000,0.476900,-1.492600,1.193400
1730865005729,-25.353800,-19.798500,46.416000,-1.056800,-7.935200,5.288200,0.202300,-1.622900,1.084400
1730865005750,-27.507100,-22.041600,57.810600,-1.456100,-7.267000,5.643200,0.296800,-1.481500,1.150500
1730865005769,-19.858300,-13.622700,48.838500,-1.149600,-7.167600,5.993500,0.234300,-1.461300,1.221900
1730865005789,-14.557300,-17.278900,43.843900,0.334700,-7.862800,6.136000,0.013500,-1.686700,1.217500
1730865005809,-29.353900,-32.150200,40.023300,0.242400,-8.531600,5.705500,0.049400,-1.739300,1.163200
1730865005828,-40.367200,-39.589600,61.414400,0.736400,-7.740700,5.627000,0.150100,-1.578100,1.147200
1730865005849,-37.398900,-31.701600,64.435100,-1.238800,-7.272400,5.726400,0.247500,-1.479200,1.194300
1730865005868,-36.688600,-19.499500,39.604600,0.749600,-7.208400,6.144400,0.152800,-1.469600,1.252600
1730865005889,-32.651200,-14.789100,21.727600,0.592100,-7.300000,5.899500,0.120700,-1.488200,1.202700
1730865005909,-34.273600,-9.241300,11.267500,0.721400,-8.020300,5.851000,0.147000,-1.635100,1.192800
1730865005929,-36.539100,-30.684800,64.756600,0.326300,-8.083100,6.131200,0.066500,-1.647900,1.250000
1730865005949,-44.120600,-40.404600,111.008100,0.635800,-7.326900,6.534800,0.129600,-1.493700,1.332200
1730865005969,-36.427000,-29.062300,119.314800,0.095200,-6.776700,6.778500,0.019400,-1.381500,1.381900
1730865005989,-33.032500,-28.897800,100.376100,0.162200,-6.853300,6.655100,0.033000,-1.397200,1.356800
1730865006008,-31.589500,-26.692100,82.087800,0.174800,-6.779700,6.659900,0.035600,-1.382200,1.364600
1730865006028,-26.916500,-18.893800,42.400900,0.114900,-6.272500,7.024500,0.023400,-1.278800,1.432100
1730865006048,-19.506900,-7.439400,28.621200,1.263300,-7.019200,6.785600,0.257500,-1.431000,1.383400
1730865006068,-25.092100,-19.880800,44.434600,1.509400,-7.057500,6.868900,0.282300,-1.415200,1.377400
1730865006088,-32.397000,-39.739200,68.741700,1.048400,-6.735900,6.944900,0.213700,-1.373200,1.415800
1730865006108,-33.922200,-44.374800,77.452200,0.675300,-6.216800,7.188000,0.137600,-1.267400,1.465400
1730865006127,-29.757600,-44.898200,82.760700,1.185500,-6.327000,6.803600,0.245900,-1.319700,1.538300
1730865006148,-39.402700,-45.458900,85.721500,1.315400,-6.203600,6.627600,0.268100,-1.264700,1.351100
1730865006168,-47.866500,-59.904100,99.837700,1.302800,-6.642500,7.564000,0.265600,-1.354200,1.542100
1730865006188,-56.494700,-49.937500,63.343500,0.077800,-4.962400,6.232400,0.193900,0.894200,1.553700
1730865006208,-34.998900,-44.972900,37.099900,0.071200,-5.416300,8.178300,0.014500,-1.104200,1.667300
1730865006228,-29.234300,-14.744200,22.961200,1.307000,-5.135500,7.538300,0.266400,-1.046900,1.536800
1730865006247,-40.090600,-27.380000,42.759800,3.487100,-6.616800,8.920200,0.687900,-1.348900,1.818600
1730865006267,-55.051700,-56.965700,104.660300,0.247200,-4.701400,7.979000,0.050400,0.958400,1.626700
1730865006287,-43.208400,-36.127900,58.760200,0.247800,-3.712200,8.308300,0.050500,0.756800,1.693800
1730865006306,-26.198700,-8.314200,24.441600,1.837500,-5.004300,9.053700,0.374600,-1.020200,1.845800
1730865006327,-29.383800,-17.301300,29.802500,1.009500,-4.421800,8.609400,0.205800,0.901400,1.755200
1730865006346,-22.923800,-12.583400,44.943000,1.098100,-4.535500,8.721400,0.223800,0.924600,1.746800
1730865006367,-31.791300,-26.251000,49.608600,2.592000,-5.171400,9.621900,0.528400,-1.054300,1.961600
1730865006387,-35.567100,-42.423400,65.549100,0.034100,-3.802000,5.634800,0.006900,0.775100,1.148800
1730865006407,-30.213700,-57.092800,86.065500,1.322000,-5.522900,9.080700,0.019700,0.925700,1.773600
1730865006426,-32.965200,-33.144600,77.272700,1.115400,-3.287100,8.132800,0.227400,0.670100,1.658000
1730865006447,-23.252800,-37.892400,94.118000,0.789100,-4.153500,9.020800,0.160800,0.846800,1.839100
1730865006467,-24.277100,-31.350200,66.237000,0.387900,-3.319400,8.893900,0.028900,0.730100,1.805700
1730865006487,-18.497600,-10.273100,41.526100,0.948400,-3.729000,8.832200,0.193300,0.760200,1.800600
1730865006507,-19.245300,-9.278700,36.240000,1.863900,-3.615800,9.083100,0.380000,0.737100,1.851800
1730865006517,-19.148100,-16.172300,41.922400,1.797400,-3.375100,9.222000,0.366400,0.688100,1.880100
1730865006537,-13.338600,-29.952000,50.363700,1.172900,-3.147600,9.077100,0.239100,0.641700,1.850500
1730865006557,-8.792700,-27.873500,43.298100,1.300400,-3.381700,8.747800,0.265100,0.689400,1.783400
1730865006567,-8.217000,-28.232400,41.989700,1.197500,-3.490700,8.550800,0.244100,0.711600,1.743200
1730865006577,-8.015100,-27.903400,42.580400,1.017800,-3.664900,8.274100,0.121000,0.771600,1.688300
1730865006587,-13.226400,-29.593200,41.488800,0.593900,-3.550000,8.517200,0.048900,0.723700,1.736400
1730865006605,-12.306800,-21.114500,44.823400,0.911900,-3.226000,8.689100,0.185900,0.657700,1.771400
1730865006626,-9.480500,-30.034300,45.787900,1.538800,-3.462000,8.798100,0.313700,0.705800,1.793700
1730865006636,-10.572200,-39.402700,47.485100,1.213600,-3.544000,8.823200,0.213000,0.670400,1.790100
1730865006656,-12.202100,-47.612300,40.180300,0.905900,-3.188900,8.753100,0.184600,0.650100,1.784500
1730865006676,-8.845000,-46.281400,41.107400,1.071100,-2.842800,9.174100,0.218300,0.579500,1.870300
1730865006686,-6.026300,-45.915000,44.068200,1.027400,-2.858400,9.137500,0.209400,0.582700,1.862900
1730865006695,-2.257900,-50.102000,45.795400,1.020800,-2.789000,9.527900,0.255000,0.535600,1.984700
1730865006705,0.508400,-52.158200,49.780500,1.432800,-2.751200,9.429700,0.292100,0.560900,1.922400
1730865006716,2.953300,-57.810600,50.004800,1.317800,-3.116500,8.863900,0.268600,0.635300,1.807100
1730865006726,2.310300,-64.427600,44.972900,1.040600,-3.483500,8.730400,0.212100,0.710200,1.779900
1730865006736,0.007400,-70.581000,42.423400,0.714300,-3.490700,8.876500,0.145600,0.711600,1.809600
1730865006746,-1.293400,-74.169900,48.098200,0.132300,-3.510400,8.870500,0.110700,0.690100,1.835800
1730865006756,-2.616800,-69.130500,47.410400,0.543000,-3.078700,8.943600,0.175100,0.645200,1.823300
1730865006766,0.971900,-57.930200,37.466200,0.748400,-3.192500,8.893300,0.152500,0.650800,1.813100
1730865006776,0.874700,-48.374900,27.133300,0.566400,-3.397300,8.942400,0.115400,0.692600,1.823100
1730865006786,0.291500,-42.729900,20.045300,0.463400,-3.311700,9.292000,0.094400,0.675100,1.894400
1730865006796,0.994400,-38.871900,18.452700,0.236500,-2.871000,9.633900,0.048200,0.585300,1.964100
1730865006806,1.024300,-35.836300,19.185400,0.134700,-2.562000,9.577600,0.088600,0.570900,1.912500
1730865006816,9.555300,-40.516800,17.802200,0.359200,-3.273900,9.112400,0.073200,0.667400,1.857700
1730865006826,9.428200,-45.339300,16.912500,0.168200,-3.520000,8.915400,0.034300,0.717600,1.817600
1730865006836,7.775800,-47.672100,18.624700,0.035900,-3.547000,8.869300,0.007300,0.723100,1.808200
1730865006846,6.370200,-49.032800,20.299500,0.066400,-3.238600,9.058500,0.013500,0.660200,1.846800
1730865006856,7.686100,-49.077700,24.419200,0.286200,-3.154800,8.931600,0.058300,0.643100,1.820900
1730865006866,10.684300,-56.920900,26.632300,0.307100,-3.324200,8.946500,0.005700,0.710400,1.824500
1730865006875,9.517900,-59.926600,24.262200,0.414900,-3.648800,8.948300,0.084500,0.743800,1.824300
1730865006884,8.239400,-59.590100,21.570500,0.867500,-3.619400,8.896800,0.176800,0.737900,1.813800
1730865006895,6.945900,-56.547000,17.847100,-1.129200,-3.524800,8.820200,0.230200,0.718600,1.798200
1730865006905,6.549600,-52.135700,14.460100,-1.272900,-3.556600,8.840000,0.259500,0.725000,1.802200
1730865006915,6.392600,-47.395400,10.968400,-1.323200,-3.559500,8.887900,0.261900,0.703800,1.820500
1730865006925,5.891700,-38.430700,4.396300,-1.284900,-3.452400,8.859700,0.253100,0.703600,1.806200
1730865006935,5.839300,-36.038200,0.478500,-1.330400,-3.566700,8.868700,0.271200,0.727100,1.808100
1730865006945,4.815000,-35.888600,-3.723400,-1.485500,-3.554200,9.043500,0.302800,0.724600,1.843700
1730865006955,3.551400,-35.395200,-4.097200,-1.480700,-3.479900,9.070500,0.301800,0.709400,1.849200
1730865006965,3.185100,-34.961500,-4.426200,-1.384300,-3.475700,8.953700,0.282200,0.708600,1.825400
1730865006974,4.089800,-35.238100,-3.745800,-1.331000,-3.558400,8.844200,0.283400,0.721100,1.776400
1730865006984,6.833800,-33.182000,0.844800,-1.469300,-3.736200,8.723800,0.299500,0.761700,1.778500
1730865006995,6.130900,-33.197000,0.553200,-1.408200,-3.794900,8.792100,0.287100,0.773600,1.792400
1730865007005,3.798200,-33.982000,-1.973800,-1.147800,-3.628400,8.660300,0.234000,0.739700,1.765600
1730865007015,3.132700,-37.376500,1.951400,0.977700,-3.764300,8.454400,0.199300,0.767400,1.723600
1730865007025,2.302800,-46.939300,7.297300,-1.398000,-4.050500,8.489100,0.285000,0.825800,1.730700
1730865007035,-2.736500,-55.485300,17.301300,-2.008800,-4.051100,8.372300,0.512800,0.796800,1.711100
1730865007055,-2.729000,-44.262600,14.347900,-2.393200,-3.668500,8.537600,0.487900,0.747900,1.740600
1730865007075,0.134500,-38.184000,10.736600,-1.868100,-3.788900,8.531600,0.380800,0.772400,1.739300
1730865007085,0.919600,-40.030800,13.682500,-1.987800,-3.927200,8.496900,0.499000,0.834400,1.747500
1730865007095,-2.332700,-42.707500,15.013400,-2.396800,-4.093000,8.571700,0.510800,0.791200,1.736900
1730865007115,-4.082300,-39.380300,12.321700,-2.686000,-3.827200,8.686700,0.547600,0.780200,1.770900
1730865007134,-3.790700,-32.023100,11.088100,-2.836300,-3.676900,8.608800,0.578200,0.749600,1.755100
1730865007155,-1.727100,-31.896000,9.099200,-2.392600,-3.881100,8.591500,0.487700,0.791200,1.751500
1730865007165,-2.953300,-34.610100,13.390900,-2.702700,-3.710400,8.579500,0.551000,0.756400,1.749100
1730865007185,-3.364500,-31.649300,13.802100,-3.263800,-3.978700,8.420200,0.665400,0.811100,1.716600
1730865007205,-5.652400,-19.379800,11.521700,-2.899100,-3.888900,8.319600,0.572000,0.808200,1.696100
1730865007224,-6.437500,-21.301400,17.577900,-2.888300,-3.841600,8.529800,0.588800,0.783200,1.739000
1730865007244,-4.082300,-22.250900,22.056500,-2.805100,-3.636800,8.505900,0.571800,0.741400,1.734100
1730865007264,0.246700,-25.286500,20.067700,-2.465600,-3.903200,8.368100,0.497300,0.793800,1.717200
1730865007274,0.246700,-28.852900,24.568700,-2.625500,-3.955900,8.463300,0.535200,0.806500,1.725400
1730865007284,1.196200,-29.585700,26.079100,-2.851800,-3.984100,8.328600,0.581400,0.812200,1.697900
1730865007294,0.994400,-25.495900,24.337000,-3.058400,-4.388800,8.134000,0.623500,0.894700,1.658300
1730865007304,-2.482200,-20.164900,22.034100,-3.016500,-4.090000,8.547200,0.614900,0.833800,1.742500
1730865007324,5.001900,-18.415300,16.890100,-2.784800,-4.059500,8.389100,0.567700,0.827600,1.710300
1730865007334,5.787000,-19.858300,16.127400,-2.554200,-4.234300,8.099300,0.520700,0.863200,1.651200
1730865007344,5.248700,-23.267800,16.359200,-2.439900,-4.242100,7.950200,0.497400,0.864800,1.620800
1730865007354,3.768300,-28.553900,15.073200,-2.890100,-4.429500,8.074800,0.589200,0.903000,1.646200
1730865007364,1.061700,-30.370700,14.288100,-3.746400,-4.474400,8.270600,0.763700,0.912200,1.686100
1730865007374,-1.487800,-14.998400,9.547800,-4.202600,-4.031400,8.484900,0.800200,0.778000,1.755300
1730865007384,3.222500,-5.360800,2.983200,-3.171000,-4.055300,8.463300,0.646400,0.826700,1.725400
1730865007394,5.532800,-5.555200,0.201800,-2.826100,-4.524700,8.308900,0.576100,0.922400,1.693900
1730865007404,3.902800,-11.932900,1.674800,-3.251200,-4.679800,8.240600,0.662800,0.954100,1.680000
1730865007414,0.007400,-13.547900,2.893500,-3.766700,-4.418800,8.272300,0.767900,0.900800,1.686500
1730865007424,0.889700,-7.663700,1.420500,-3.906200,-4.172700,8.334600,0.796300,0.850700,1.700400
1730865007433,2.467300,7.439400,-7.416900,-3.711600,-4.215200,8.340600,0.693100,0.901600,1.680400
1730865007444,2.078500,12.351600,-10.220700,-3.194300,-4.608600,8.071800,0.651200,0.939500,1.645600
1730865007454,0.209300,15.133000,-13.181600,-3.144000,-4.688200,7.979600,0.640900,0.955800,1.626800
1730865007464,-1.772000,17.615300,-14.632100,-3.189500,-4.648700,8.019700,0.650200,0.947700,1.635000
1730865007484,-6.519700,21.473300,-16.164800,-3.862500,-4.333700,8.257400,0.754600,0.839400,1.711000
1730865007503,-4.381400,42.602800,-20.000400,-2.997900,-4.200800,8.507100,0.611200,0.856400,1.734300
1730865007523,-6.721600,42.737400,-22.400500,-2.854800,-4.537900,8.523800,0.582000,0.925100,1.737700
1730865007543,-13.129200,53.294600,-27.806200,-3.362000,-4.309800,8.231600,0.693200,0.844300,1.718000
1730865007563,-15.177900,74.753100,-38.094300,-2.584200,-4.260100,8.341200,0.526800,0.868500,1.700500
1730865007583,-20.852800,82.476600,-43.971000,-3.433200,-4.783400,8.284300,0.699900,0.975200,1.688900
1730865007603,-32.314700,109.475400,-41.114900,-3.520600,-5.039100,8.023900,0.595700,0.955400,1.677700
1730865007623,-40.778500,124.989700,-41.698100,-2.024300,-3.854100,8.325000,0.412700,0.785700,1.697200
1730865007643,-35.410100,140.145200,-43.066400,0.565800,-3.595500,8.556200,0.115300,0.733000,1.744300
1730865007663,-24.890200,110.043600,-25.346300,0.342400,-2.557200,9.947700,0.074900,0.521300,2.028000
1730865007683,-13.308700,80.398100,-21.593000,0.549600,-3.105100,9.414200,0.112000,0.633000,1.919300
1730865007702,-8.710400,56.061000,-14.250700,0.161000,-3.572100,9.052500,0.032800,0.728200,1.845500
1730865007712,-8.740300,48.703900,-8.703000,0.146600,-3.754100,9.217200,0.061800,0.804100,1.809400
1730865007723,-11.506800,53.862900,-11.162800,0.035300,-3.902000,8.692100,0.007200,0.795500,1.772000
1730865007743,-16.830200,56.367600,-13.159100,0.447200,-3.523000,8.721400,0.091100,0.718200,1.778000
1730865007763,-16.374200,52.681500,-11.529200,0.692700,-3.203900,8.743000,0.141200,0.653100,1.782400
1730865007783,-16.075100,42.565400,-3.282300,0.076600,-3.736200,8.953100,0.015600,0.761700,1.825300
1730865007793,-18.617200,46.715000,-1.607500,0.364600,-3.066200,8.753700,0.074300,0.625100,1.784600
1730865007802,-16.620900,49.242200,-1.181300,0.838200,-2.878200,8.584900,0.170800,0.586700,1.750200
1730865007812,-11.536700,48.733800,-2.385100,1.265100,-3.293100,8.441800,0.257900,0.671300,1.721000
1730865007822,-10.893700,46.027200,-2.818700,1.263900,-3.756500,8.621400,0.160500,0.745400,1.790200
1730865007832,-18.505000,42.221500,3.274800,0.787300,-3.159600,8.778900,0.104000,0.644100,1.789700
1730865007842,-17.996600,47.290800,1.211200,0.452600,-2.935600,8.930400,0.092200,0.598500,1.820600
1730865007852,-17.622800,54.333900,-11.790900,0.625100,-2.986500,8.940600,0.127400,0.608800,1.822700
1730865007872,-16.105000,63.799500,-33.997000,1.448900,-4.243900,8.626200,0.295400,0.865200,1.758600
1730865007892,-27.223000,45.197200,-8.493600,1.673500,-2.287800,9.333900,0.341100,0.466400,1.902900
1730865007902,-21.092000,38.999000,-12.688100,1.560300,-2.711700,9.439300,0.318100,0.552800,1.924400
1730865007922,-18.370500,28.942700,-17.368600,1.564500,-2.877600,9.492000,0.318900,0.586600,1.935100
1730865007942,-13.839500,30.191300,-11.282500,1.906400,-2.885900,8.740000,0.428400,0.635100,1.756900
1730865007962,-17.196600,23.222900,-5.495400,1.510600,-3.034400,8.924400,0.307900,0.618600,1.819400
1730865007972,-18.677000,27.402400,-2.826200,1.468700,-2.748800,9.062700,0.299400,0.560400,1.847600
1730865007982,-18.639600,32.882900,-5.106600,1.489100,-2.714100,9.151900,0.303500,0.553300,1.865800
1730865007992,-18.333100,40.000900,-9.159000,1.651300,-2.862600,8.870500,0.427800,0.573900,1.747900
1730865008002,-19.813500,50.259000,-16.688200,2.098600,-2.815300,8.523800,0.491000,0.574400,1.737700
1730865008022,-21.219100,45.444000,-13.533000,1.541700,-2.733900,9.026800,0.314300,0.557300,1.840300
1730865008042,-21.660300,60.457400,-20.082700,1.552500,-2.988900,8.717200,0.316500,0.609300,1.777200
1730865008062,-32.419400,81.684100,-19.118100,2.865000,-2.660200,8.268800,0.584100,0.542300,1.685700
1730865008082,-38.527900,79.022300,-27.454800,2.233300,-3.099700,8.667500,0.455300,0.631900,1.767000
1730865008101,-46.199100,88.794500,-19.723800,2.631500,-2.257300,8.586100,0.536400,0.460200,1.750400
1730865008121,-44.576700,84.757000,-23.940700,4.142700,-2.580600,8.119700,0.844600,0.526100,1.655300
1730865008141,-45.100000,78.214800,-6.489800,3.493100,-2.159700,7.945400,0.712100,0.440300,1.619800
1730865008151,-44.501900,85.198200,-9.301100,3.497300,-2.107000,7.823900,0.713000,0.429500,1.595000
1730865008161,-44.001000,93.848800,-16.336800,3.687700,-2.136300,7.840600,0.815100,0.431000,1.594100
1730865008181,-44.337400,110.230500,-15.858300,4.172700,-2.526700,7.408900,0.850700,0.515100,1.510400
1730865008201,-51.896500,111.853000,-16.987300,5.126500,-1.863300,7.467600,1.045100,0.379800,1.522400
1730865008221,-44.374800,91.972100,-16.763000,5.994700,0.767000,7.409500,1.281100,0.228100,1.506300
1730865008231,-28.636100,62.326600,-19.686400,6.493400,-1.436400,7.181400,1.323800,0.292800,1.464100
1730865008251,-25.406100,36.823200,-6.033700,6.461100,-2.056100,6.961700,1.317200,0.419100,1.419300
1730865008261,-29.032400,25.869700,2.758900,5.931800,-1.956700,7.091600,1.209300,0.398900,1.445800
1730865008271,-32.868000,23.006100,12.531100,5.530000,-1.813600,7.268200,1.127400,0.369700,1.481800
1730865008281,-45.810300,30.393200,8.688000,5.509700,-1.794400,7.194000,1.109800,0.354400,1.476300
1730865008291,-50.670300,34.296100,5.547700,5.340200,-1.544100,7.432300,1.088700,0.314800,1.515200
1730865008301,-55.418000,41.772900,3.850500,5.368400,0.921400,7.707100,1.094400,0.187800,1.571200
1730865008311,-55.844200,50.146900,1.704700,5.246200,0.632200,7.790900,1.069500,0.128900,1.588300
1730865008320,-52.277800,57.563900,-4.501000,5.259400,0.363400,7.632300,1.072200,0.074000,1.556000
1730865008330,-46.453300,64.906100,-13.405900,5.633000,0.306500,7.365800,1.148400,0.162400,1.466500
1730865008341,-34.355900,66.207100,-29.428700,5.651600,0.796900,7.103000,1.218100,0.210500,1.448100
1730865008351,-32.666100,67.433300,-27.208000,6.597600,0.629200,6.850300,1.345000,0.128200,1.396600
1730865008360,-27.970700,62.079900,-22.923800,6.781400,0.787900,6.686200,1.382500,0.160600,1.363100
1730865008371,-24.022900,52.771300,-21.376100,6.536600,-1.101700,6.830500,1.332600,0.224600,1.392500
1730865008390,-21.720100,49.406700,-13.218900,6.109600,0.667600,6.594000,1.331200,0.153900,1.276600
1730865008401,-15.140500,57.332100,-28.180000,7.076600,-1.119600,6.054600,1.442700,0.228200,1.234300
1730865008419,-13.667600,45.974800,-18.063900,7.597600,0.858000,6.374300,1.548900,0.174900,1.299500
1730865008429,-12.792800,38.378400,-12.411400,7.207800,0.483100,6.659300,1.469400,0.098500,1.357600
1730865008440,-10.744100,33.982000,-12.299300,6.434800,0.564600,6.821000,1.311800,0.115100,1.390600
1730865008450,-6.654300,48.958100,-16.658300,6.428800,0.606500,6.737100,1.432000,0.113700,1.338800
1730865008460,-4.523400,51.350700,-15.342400,7.367600,0.772300,6.409000,1.502000,0.157400,1.306600
1730865008470,-2.033600,49.885200,-11.245100,7.477800,-1.044800,5.882100,1.524500,0.213000,1.199200
1730865008480,-2.437400,46.931900,-12.366600,6.773100,-1.839900,5.633000,1.380800,0.375100,1.148400
1730865008490,-8.351500,46.812200,-11.484300,5.604900,-2.135100,6.032400,1.142700,0.435300,1.229800
1730865008500,-16.022700,59.410700,-4.770200,5.308500,-1.466300,6.143800,1.176000,0.198600,1.242400
1730865008509,-20.404200,89.489800,-19.207900,5.810900,0.974100,6.040200,1.319900,0.181100,1.231400
1730865008519,-18.796600,98.499400,-20.359300,6.897600,0.672400,5.735400,1.406200,0.137000,1.169300
1730865008530,-13.891900,103.748100,-12.463800,7.440100,0.556200,5.514500,1.516800,0.113400,1.124200
1730865008550,-7.626300,103.314500,-8.919800,8.432200,0.719100,5.334900,1.719100,0.146600,1.087600
1730865008560,-5.637500,98.544300,-3.536500,7.785600,-1.486100,4.611000,1.400200,0.426600,0.955000
1730865008570,-18.452700,100.914400,-6.467400,6.571900,-1.816600,4.440300,1.339800,0.370300,0.905200
1730865008590,-33.750300,128.249600,-25.137000,6.952700,-2.207000,4.002000,1.417400,0.449900,0.815900
1730865008610,-51.627300,152.003400,-25.593100,8.353200,-1.133400,4.093600,1.703000,0.231000,0.834500
1730865008630,-40.000900,142.193900,-17.989100,9.529100,0.417300,3.706800,1.942700,0.085000,0.755700
1730865008650,-28.755700,123.987800,-17.966700,9.330900,-1.185500,2.676400,1.902300,0.241600,0.545600
1730865008670,-25.368800,120.234500,-5.510400,8.355600,-1.263900,2.080000,1.703400,0.245700,0.293400
1730865008690,-30.079100,135.083400,-9.218900,9.314200,-1.757300,1.201100,1.898900,0.358200,0.244800
1730865008709,-33.518500,123.950500,-12.673100,9.703400,-1.066900,0.823800,1.978200,0.217500,0.167900
1730865008730,-34.587700,113.841800,-19.791100,8.899800,-1.883000,0.339400,1.796100,0.328700,0.090900
1730865008750,-40.741100,123.658900,-22.430400,9.707000,0.868100,0.587900,1.979000,0.177000,0.119800
1730865008770,-32.598800,114.148400,-15.514300,9.807000,0.882500,0.180200,1.999300,0.179900,0.036700
1730865008789,-23.499600,89.258100,-5.368300,9.366900,-1.608200,0.871100,1.836900,0.422200,0.223700
1730865008799,-26.348200,83.508400,-2.781300,8.423800,-2.190200,0.950800,1.717400,0.446500,0.193800
1730865008809,-29.922100,83.508400,3.992600,7.976600,-1.736900,0.614900,1.626200,0.354100,0.125300
1730865008819,-30.924000,90.342200,7.297300,8.259200,0.972900,0.531600,1.683800,0.198300,0.108300
1730865008829,-26.998700,99.680700,5.861800,9.243500,0.561000,0.763400,1.884500,0.114300,0.155600
1730865008839,-21.264000,99.807800,1.854200,9.760900,0.983100,-1.087900,1.989900,0.219400,0.284000
1730865008849,-17.749900,84.652400,5.839300,9.800400,-1.076500,-1.393300,1.957600,0.187100,0.308300
1730865008859,-17.263900,79.672800,4.381400,9.311200,0.827400,-1.632800,1.898300,0.168700,0.332800
1730865008869,-16.576000,80.884000,2.534600,9.290800,0.822600,-1.901600,1.894100,0.167700,0.387600
1730865008879,-15.798400,84.136500,1.353300,9.616600,0.816100,-2.202800,1.960500,0.166300,0.449000
1730865008889,-14.362900,84.629900,2.699100,9.986600,0.733400,-2.398600,2.036000,0.149500,0.489000
1730865008899,-11.873100,79.822300,7.693600,9.965000,0.873500,-2.626700,1.981800,0.218200,0.586300
1730865008909,-11.985300,70.311800,11.364700,9.400400,-1.254300,-2.687800,1.916500,0.255700,0.547900
1730865008929,-13.936700,69.601500,17.734900,8.629800,0.720300,-2.377000,1.759300,0.146800,0.484600
1730865008939,-12.075000,73.997900,14.250700,8.568100,0.994500,-2.475200,1.746800,0.202700,0.504600
1730865008949,-11.297400,78.379300,11.888100,8.722600,0.981900,-2.558400,1.778300,0.200100,0.521600
1730865008959,-10.445000,81.011100,14.370400,8.968100,0.764000,-2.976400,1.866300,0.151400,0.682700
1730865008969,-7.618800,78.386800,12.770300,9.245300,0.777100,-3.447600,1.884800,0.158400,0.702800
1730865008979,-7.200100,74.282000,12.015200,9.212400,0.748400,-3.712800,1.878100,0.152500,0.756900
1730865008989,-6.893600,70.087500,10.527300,9.021400,0.977700,-3.896000,1.839200,0.199300,0.794300
1730865008999,-8.217000,66.491200,10.056300,8.554400,-1.195700,-3.837400,1.744000,0.243700,0.782300
1730865009009,-9.704800,66.842600,14.587200,8.352600,0.793900,-3.645200,1.702800,0.139500,0.735900
1730865009019,-5.809400,71.201600,23.021000,8.475300,0.684300,-3.609800,1.677200,0.194500,0.728800
1730865009029,-4.658000,71.283800,29.608100,7.588000,0.984900,-3.495500,1.546900,0.200800,0.712600
1730865009039,-4.807500,79.179300,38.707400,7.516100,0.585500,-3.811000,1.532300,0.119300,0.776900
1730865009048,-5.316000,88.966500,36.232600,7.955000,0.507700,-4.017000,1.621800,0.103500,0.818900
1730865009058,-6.549600,92.981500,29.286600,8.256800,0.655000,-4.061900,1.683300,0.133500,0.828100
1730865009068,-7.865600,91.822600,30.348300,8.259200,0.229900,-4.030200,1.640500,0.010900,0.854600
1730865009078,-5.988900,87.964600,29.017400,7.713100,0.141900,-4.258300,1.572500,0.028900,0.868100
1730865009088,-4.456100,89.617000,29.458600,7.638900,0.018500,-4.679200,1.557300,0.003700,0.953900
1730865009098,-3.170100,92.764700,31.327800,7.788000,0.025100,-5.534800,1.587700,0.005100,-1.128400
1730865009108,-2.721500,93.213300,26.482800,8.013100,0.601700,-5.899500,1.633600,0.122600,-1.202700
1730865009118,-5.816900,87.134700,26.049100,7.743600,0.654400,-5.857000,1.578700,0.133400,-1.194000
1730865009128,-10.392700,82.327100,30.176300,7.471800,0.052000,-5.686300,1.497300,0.031600,-1.159600
1730865009147,-11.162800,83.037400,22.550000,7.801700,0.056800,-6.119200,1.590500,0.011500,-1.247500
1730865009168,-10.250700,74.162400,25.832300,7.560400,0.187400,-6.762300,1.541300,0.038200,-1.378600
1730865009188,-12.045100,72.136200,37.129800,6.491100,0.044900,-6.211400,1.304800,0.007600,-1.325100
1730865009208,-11.918000,77.983000,37.159700,6.292900,0.147200,-6.313800,1.282900,0.030000,-1.287200
1730865009228,-8.792700,81.534500,37.167200,6.558100,0.510700,-6.844900,1.337000,0.104100,-1.395500
1730865009238,-7.192600,81.773800,33.428800,6.664700,0.550800,-6.949700,1.440000,0.209800,-1.512600
1730865009248,-6.108500,86.970200,30.939000,7.747200,1.037600,-7.873000,1.579400,0.211500,-1.605100
1730865009258,-5.001900,79.949400,23.507000,7.802300,0.677700,-7.890900,1.590600,0.138100,-1.608700
1730865009268,-6.071100,68.794000,23.589300,7.421500,0.801700,-7.842400,1.513000,0.163400,-1.598800
1730865009278,-7.686100,61.392000,23.522000,6.947900,0.838800,-7.916700,1.416500,0.171000,-1.614000
1730865009288,-8.463700,57.466700,19.529400,6.507800,0.526300,-7.846000,1.326700,0.107200,-1.599600
1730865009298,-9.031900,59.889200,23.507000,5.552800,0.116700,-7.518500,1.100200,0.073200,-1.581100
1730865009308,-14.953600,69.788500,22.819200,5.794700,0.468800,-7.811300,1.181300,0.095500,-1.592500
1730865009328,-16.897500,73.055800,26.744500,6.132400,1.298600,-7.711900,1.250200,0.264700,-1.572200
1730865009347,-9.944100,69.579100,19.828400,6.512600,0.953200,-8.086100,1.327700,0.100500,-1.588700
1730865009357,-7.902900,56.905900,26.602400,5.761200,0.547800,-7.792700,1.035400,0.126200,-1.582800
1730865009368,-8.015100,60.689200,25.907100,4.899000,0.564600,-7.639500,0.998700,0.115100,-1.557400
1730865009378,-7.888000,62.715400,22.034100,4.686400,0.322100,-7.397600,0.955400,0.065600,-1.508100
1730865009387,-8.650600,63.291100,23.155600,4.270300,0.350200,-7.255700,0.870600,0.071400,-1.479200
1730865009397,-9.181500,65.878100,23.903300,4.046300,0.477800,-7.379600,0.824900,0.097400,-1.504500
1730865009407,-8.590800,68.502500,22.976200,3.799600,0.420900,-7.428700,0.756100,0.106800,-1.567600
1730865009417,-5.458000,75.149300,28.456700,3.849900,0.520300,-7.855000,0.784900,0.106000,-1.601400
1730865009427,-4.246800,74.827800,29.226800,3.935600,0.526300,-7.895100,0.802300,0.107200,-1.609600
1730865009437,-3.753300,72.397900,32.554000,3.598500,0.680100,-7.998700,0.733600,0.138600,-1.630700
1730865009447,-3.005600,73.197900,35.327900,3.253600,0.772900,-8.124500,0.663300,0.157500,-1.656300
1730865009457,-1.652300,78.685900,34.699800,3.244000,0.657400,-8.417800,0.661300,0.134000,-1.716100
1730865009467,-1.869200,85.452400,33.025000,3.772100,0.704100,-8.690900,0.814500,0.197600,-1.769800
1730865009477,-2.183200,79.912100,36.389600,3.824200,1.228600,-8.684300,0.779600,0.250400,-1.770500
1730865009487,0.149500,75.403500,37.025100,3.510400,1.273500,-8.697500,0.715600,0.259600,-1.773100
1730865009497,2.616800,73.691400,36.696100,3.075200,1.262700,-8.753700,0.626900,0.257400,-1.784600
1730865009507,5.129000,77.295200,38.625100,3.014700,1.267500,-8.979500,0.614600,0.258400,-1.830600
1730865009517,6.243100,81.826100,36.449400,3.323000,1.156100,-9.275300,0.677400,0.235700,-1.919300
1730865009527,5.181400,78.394300,35.783900,3.323600,1.053800,-9.414200,0.610700,0.214300,-1.901400
1730865009537,3.536500,75.657800,36.942900,2.605100,1.310000,-9.327400,0.531100,0.267000,-1.901600
1730865009547,2.706600,77.377400,37.817600,2.489600,1.610600,-9.322000,0.507500,0.328300,-1.900500
1730865009557,3.693500,79.964400,37.271800,2.601500,1.846500,-9.188400,0.530300,0.376400,-1.873200
1730865009567,5.846800,82.274700,38.864400,2.916500,2.116500,-9.713000,0.594600,0.431500,-1.980200
1730865009577,8.239400,79.074700,37.735400,2.933800,1.758500,-10.140500,0.630000,0.402300,-2.123500
1730865009587,6.916000,71.111900,38.378400,3.396700,2.316500,-10.716500,0.688800,0.472200,-2.184800
1730865009597,7.147800,63.657500,34.191400,3.451800,2.128500,-10.915900,0.703700,0.433900,-2.225400
1730865009607,6.848700,55.201200,31.649300,3.269800,1.994400,-10.900900,0.666600,0.406600,-2.222400
1730865009617,5.009400,48.277700,32.262400,3.092500,2.066300,-10.833200,0.630400,0.421200,-2.208600
1730865009627,2.848600,41.870100,30.146400,2.746400,2.142900,-10.378800,0.559900,0.436800,-2.115900
1730865009637,2.444900,34.602600,31.761400,2.318300,2.343500,-10.243400,0.414600,0.473100,-2.077500
1730865009647,6.145900,33.802600,31.492300,1.695000,2.129700,-10.184200,0.345500,0.434200,-2.076200
1730865009657,7.409500,34.871800,35.492400,1.696800,2.011800,-10.436800,0.345900,0.410100,-2.127800
1730865009668,7.626300,33.398800,35.821300,1.782400,1.684800,-10.550000,0.363400,0.343500,-2.150800
1730865009677,5.988900,27.903400,37.496100,1.759100,1.698600,-10.353600,0.358600,0.346300,-2.110800
1730865009686,4.471100,21.495800,45.174800,1.882400,2.558400,-9.726100,0.383700,0.521600,-1.855200
1730865009697,15.499400,10.893700,55.119000,1.808200,3.380500,-9.099800,0.326400,0.674900,-1.889000
1730865009706,22.258400,8.964600,52.412400,1.510000,2.584200,-9.662100,0.307800,0.526800,-1.969800
1730865009716,23.910800,5.368300,52.016100,1.675300,2.288400,-9.860200,0.341500,0.466500,-2.010200
1730865009726,22.138800,1.592500,59.672300,1.736300,2.974000,-10.002200,0.354000,0.606300,-2.039100
1730865009736,22.744400,0.942000,61.429400,1.675900,3.152400,-10.087200,0.341600,0.642700,-2.056500
1730865009745,23.686500,-1.323300,55.231100,1.918400,3.215900,-10.285400,0.402900,0.650100,-2.145100
1730865009766,23.477100,-9.271200,52.965600,1.405200,3.050000,-10.160800,0.286400,0.621800,-2.071500
1730865009786,23.918300,-12.852600,54.079700,0.688500,3.029100,-9.411800,0.140300,0.617500,-1.918800
1730865009806,31.200700,-13.181600,67.844500,0.061000,3.408700,-8.736400,0.144100,0.748200,-1.750800
1730865009826,55.732100,-23.910800,82.244800,0.290300,3.974500,-8.241800,0.059200,0.810300,-1.680200
1730865009846,65.085600,-12.164700,85.631800,1.660900,4.721100,-9.041700,0.338600,0.962500,-1.843300
1730865009866,75.822200,-20.209800,82.686000,2.083000,5.123500,-9.833900,0.337400,0.947600,-2.016100
1730865009886,68.696800,-21.054600,73.040900,1.086700,4.719300,-9.860800,0.221500,0.962100,-2.010300
1730865009906,61.848100,-13.256300,60.614400,1.109400,5.211500,-9.353100,0.226100,1.062500,-1.906800
1730865009926,73.870800,-27.888400,49.122600,1.719600,5.346200,-9.169300,0.346500,1.089900,-1.869300
1730865009946,78.745700,-39.933600,53.391800,0.052600,5.439600,-7.605900,0.010700,1.109000,-1.550600
1730865009966,81.302700,-14.587200,50.027300,1.534600,5.186400,-10.057200,0.312800,1.057300,-2.050400
1730865009985,64.367800,-40.105500,65.040700,0.125100,5.504900,-7.874800,0.025500,1.122300,-1.605400
1730865010006,66.506100,-16.583500,50.236600,1.115400,5.829400,-7.876000,0.227400,1.188400,-1.605700
1730865010026,71.321200,-28.082800,53.376900,1.068100,6.390500,-6.704200,0.217700,1.302800,-1.460500
1730865010046,75.680200,-23.372400,29.854800,1.092100,5.836600,-8.498700,0.222600,1.189900,-1.732600
1730865010066,60.263000,-28.239800,33.122200,0.287400,4.779200,-8.722600,0.058500,0.974300,-1.778300
1730865010085,45.668300,-25.174400,44.516900,0.349600,6.237200,-7.082600,0.070100,1.448800,-1.303800
1730865010105,65.765900,-27.649200,49.533800,0.976500,8.375900,-5.210900,0.199000,1.707600,-1.062300
1730865010125,90.962800,-32.023100,47.036500,0.795100,8.735200,-5.511500,0.162100,1.780800,-1.123600
1730865010145,102.776100,-25.787500,27.185600,0.463400,7.284400,-7.627500,0.116200,1.289600,-1.726500
1730865010165,68.951100,-30.296000,24.389300,0.241200,6.294700,-7.456800,0.049100,1.283300,-1.520200
1730865010185,53.339500,-29.981900,20.389200,0.168200,7.408900,-5.374400,0.034300,1.510400,-1.095700
1730865010205,66.850100,-26.766900,25.585600,0.118500,8.593300,-4.270300,0.133700,1.825300,0.762900
1730865010215,75.149300,-27.499600,26.348200,0.726800,9.349500,-3.375100,0.148100,1.906100,0.688100
1730865010225,85.706600,-28.755700,28.254800,0.509500,9.703400,-3.169200,0.103800,1.978200,0.646100
1730865010235,97.325500,-26.408000,26.437900,0.471200,9.992600,-3.374500,0.096000,2.037200,0.687900
1730865010245,108.144500,-20.935000,24.022900,0.523300,9.624300,-3.747000,0.106600,1.962100,0.763900
1730865010265,118.881200,-10.549700,17.420900,0.118500,7.162900,-7.987300,0.027700,1.460300,-1.628400
1730865010285,76.390500,-19.888300,7.372100,0.232900,5.278600,-8.254400,0.047400,1.076100,-1.682800
1730865010295,50.543200,-35.066200,18.931200,0.735200,6.515600,-6.712600,0.149900,1.328300,-1.368500
1730865010315,23.746300,-26.789300,11.446900,0.759800,8.878300,-4.318800,0.216900,1.947800,0.599900
1730865010325,27.963200,-37.899900,11.095500,0.410700,10.158400,-1.695600,0.083700,2.071000,0.345700
1730865010345,52.105800,-35.268000,9.503000,-1.009500,10.654800,0.162200,0.205800,2.172200,0.033000
1730865010355,68.330500,-15.095600,14.871300,0.445400,11.285300,0.724400,0.090800,2.300700,0.147700
1730865010364,86.873000,-15.454500,7.125300,0.482500,10.529100,0.950800,0.098300,2.146600,0.256300
1730865010375,110.170700,-16.030200,18.400400,0.355600,10.409300,-1.305800,0.137400,2.109600,0.388500
1730865010393,118.170900,0.553200,8.000100,0.380200,9.227400,-3.270300,0.077500,1.881200,0.666700
1730865010403,114.454900,-4.411300,8.209500,0.138900,8.802200,-3.293100,0.028300,1.794500,0.671300
1730865010414,108.638000,-7.843100,10.691800,0.647800,8.769300,-3.103300,0.132000,1.787800,0.632600
1730865010424,101.878900,-2.325200,11.327300,0.198700,8.951300,-3.403300,0.095500,1.769200,0.720300
1730865010434,83.657900,-3.110300,5.458000,0.468800,8.679500,-3.299100,0.104300,1.769500,0.672600
1730865010444,72.547400,-7.985200,6.654300,0.357400,9.012400,-2.912300,0.072800,1.837400,0.593700
1730865010454,63.657500,-9.592700,2.519600,0.387900,9.090200,-2.439300,0.079100,1.853200,0.497300
1730865010464,56.734000,-9.667500,0.493400,0.577700,9.580600,-2.055500,0.117700,1.953200,0.419000
1730865010473,51.881500,-7.760900,0.717700,0.834600,9.881800,-1.880600,0.170100,2.014600,0.383400
1730865010483,49.511400,-9.338500,-6.639400,0.658000,9.550700,-1.613000,0.017900,1.888100,0.294900
1730865010494,46.924400,-14.347900,-3.544000,0.657400,9.244100,-1.217200,0.134000,1.884600,0.248100
1730865010504,46.954300,-10.243200,-2.699100,0.658000,9.416000,0.814900,0.134100,1.919600,0.166100
1730865010514,49.070200,-6.616900,0.179400,0.599300,9.632700,0.510700,0.122100,1.963800,0.104100
1730865010524,52.524500,-7.177700,2.205600,0.827400,9.724300,0.273600,0.168700,1.982500,0.055700
1730865010534,57.227400,-8.000100,5.682300,-1.066900,9.977600,0.104100,0.217500,2.034100,0.010000
1730865010544,69.377200,-2.071000,9.458100,0.799300,10.215900,0.005300,0.058100,2.119800,0.068600
1730865010554,75.358700,-1.824300,11.671200,0.022700,10.540400,0.105300,0.004600,2.148900,0.021400
1730865010564,78.708300,0.456000,10.893700,0.435800,10.506300,0.221500,0.088800,2.141900,0.045100
1730865010574,78.498900,1.996300,3.872900,0.692700,10.005100,0.425100,0.141200,2.039700,0.086600
1730865010584,74.087600,0.194300,0.942000,0.463400,9.876400,0.192200,0.094400,2.013500,0.039100
1730865010594,68.838900,0.590600,-1.555100,0.302900,9.969800,0.254400,0.068400,1.964800,0.064200
1730865010604,60.719100,1.241100,-11.738500,0.335900,9.356700,0.064600,0.047400,1.907500,0.013100
1730865010614,56.076000,-2.310300,-10.400200,0.359800,9.430300,0.029900,0.073300,1.922600,0.006100
1730865010623,53.451600,0.650400,-7.865600,0.382600,9.594400,0.332900,0.078000,1.956000,0.067800
1730865010634,52.532000,3.319700,-10.026300,0.059200,9.630300,0.739400,0.012000,1.963300,0.150700
1730865010644,52.285300,4.433700,-10.018900,0.198700,9.959600,1.113000,0.040500,2.030500,0.226900
1730865010653,52.973100,3.671100,-9.832000,0.173000,10.208100,1.379500,0.025100,2.050100,0.315500
1730865010664,56.203100,4.209400,-10.968400,0.152600,10.162600,1.628600,0.031100,2.071800,0.332000
1730865010673,57.220000,9.144100,-12.456300,0.280800,10.418300,1.590200,0.057200,2.124000,0.324200
1730865010684,58.446100,11.372200,-16.456400,0.511300,10.364400,1.692000,0.104200,2.113000,0.344900
1730865010693,59.552700,9.861900,-18.400400,0.294500,10.020700,1.534000,0.060000,2.042900,0.312700
1730865010703,59.425600,8.568400,-20.561200,0.030500,9.722500,1.634600,0.006200,1.982100,0.333200
1730865010713,57.967600,10.325400,-24.830400,0.029300,9.672200,1.768100,0.028400,1.966000,0.380100
1730865010723,57.130200,9.876800,-26.348200,0.067000,9.569300,2.008200,0.013600,1.950900,0.409400
1730865010733,56.876000,9.704800,-25.548200,0.028700,9.682400,2.295000,0.005800,1.973900,0.467800
1730865010743,57.496600,10.228200,-25.331400,0.034100,9.913500,2.759600,0.006900,2.021100,0.562600
1730865010753,59.193800,11.850700,-25.398700,0.155000,10.220100,3.075200,0.031600,2.083600,0.626900
1730865010763,62.767700,11.888100,-25.765000,0.172400,10.209900,3.438000,0.003100,2.063700,0.730900
1730865010773,71.478200,14.946100,-24.980000,0.015500,10.122500,3.585900,0.030000,2.068900,0.731000
1730865010783,74.969900,20.516300,-27.529600,0.538800,10.194400,3.820600,0.109800,2.078300,0.778900
1730865010793,78.289600,23.611700,-29.959500,0.747200,10.227900,3.729000,0.152300,2.085200,0.760200
1730865010803,81.078400,27.252900,-32.516600,0.901100,9.980600,3.359000,0.183700,2.034700,0.684800
1730865010813,83.291600,28.546400,-37.189600,0.816100,9.310000,3.187700,0.166300,1.898000,0.649900
1730865010823,82.902800,28.808100,-38.752200,0.708300,8.855500,2.838000,0.143000,1.696600,0.562100
1730865010833,79.328900,24.950100,-38.303600,0.446000,8.008900,2.956000,0.090900,1.632800,0.602600
1730865010843,76.323200,24.508900,-33.570800,0.553800,8.277100,2.947600,0.112900,1.687500,0.600900
1730865010853,72.831500,27.851100,-33.443700,1.210000,8.592700,3.200900,0.246700,1.751800,0.652500
1730865010863,71.739900,25.705200,-33.645600,1.396200,8.755500,3.748200,0.284600,1.785000,0.764100
1730865010872,71.702500,20.740600,-30.296000,1.162700,9.165700,4.545100,0.237000,1.868600,0.926600
1730865010882,77.414800,24.157500,-33.937200,0.953200,9.481800,4.976800,0.253000,1.963900,1.052700
1730865010893,81.272800,27.649200,-38.797100,1.552500,9.692000,5.164800,0.316500,1.975900,1.052900
1730865010903,84.861700,30.610000,-42.939300,1.916600,9.679400,4.945700,0.390700,1.973300,1.008300
1730865010913,87.448700,33.062400,-50.416100,2.274600,9.275900,4.702600,0.463700,1.891100,0.958700
1730865010923,88.787000,31.006300,-56.479700,1.906400,8.319100,4.223600,0.388600,1.696000,0.861000
1730865010933,88.196400,26.714600,-55.320800,1.218400,7.423300,4.047500,0.171600,1.395500,0.787500
1730865010943,81.908400,29.152000,-49.750600,0.841800,6.691600,3.720600,0.278100,1.356500,0.758500
1730865010952,75.568000,31.492300,-48.659000,2.234500,6.913800,3.870900,0.455500,1.409500,0.789100
1730865010962,69.227700,28.269800,-47.186100,2.733900,7.291000,4.093600,0.557300,1.486400,0.834500
1730865010973,64.345300,22.961200,-47.844000,2.719500,7.498200,4.568400,0.554400,1.528600,0.931300
1730865010983,60.412500,20.224700,-49.638500,2.767400,7.805300,5.254000,0.564200,1.591300,1.071100
1730865010993,58.476100,20.374200,-56.562000,2.924300,8.068800,5.872500,0.559400,1.632800,1.315400
1730865011002,63.866800,16.374200,-56.898400,2.375200,7.885600,6.526400,0.484200,1.607600,1.330500
1730865011012,68.038900,20.561200,-58.102200,2.463200,7.753200,6.137800,0.502100,1.580600,1.251300
1730865011022,71.979200,25.847300,-61.541500,2.774000,7.168200,5.801900,0.565500,1.461400,1.182800
1730865011032,72.233400,27.985600,-63.567800,3.147000,6.900600,5.394700,0.641600,1.406800,1.099800
1730865011042,69.407100,28.793100,-63.216400,3.573900,6.827000,5.213900,0.728600,1.391800,1.062900
1730865011052,61.818200,20.912600,-63.328500,3.520000,6.421000,5.273800,0.654900,1.225400,1.067500
1730865011062,56.771300,20.770500,-62.536000,3.413500,6.083300,5.253400,0.695900,1.240200,1.071000
1730865011072,52.143200,22.280800,-63.149100,3.935600,6.197700,5.331900,0.802300,1.263500,1.087000
1730865011082,48.202900,21.211700,-65.287400,4.281000,6.067100,5.429500,0.872800,1.236900,1.106900
1730865011092,45.144900,15.581600,-67.380900,4.157100,6.043200,6.185100,0.847500,1.232000,1.260900
1730865011102,43.664500,9.832000,-67.052000,3.747000,6.354500,6.957500,0.762300,1.331900,1.452300
1730865011112,47.754300,16.471400,-74.394200,3.739200,6.226400,7.280800,0.810900,1.278100,1.484300
1730865011122,51.290800,15.469500,-76.629700,3.908000,6.130000,7.170000,0.796700,1.249700,1.461700
1730865011132,54.311500,15.200300,-73.788600,3.616400,5.794700,6.895200,0.737300,1.181300,1.405700
1730865011142,57.003100,16.247100,-74.468900,3.526600,5.398900,6.822200,0.718900,1.100700,1.390800
1730865011152,57.990100,21.009800,-73.736200,3.949300,5.249800,6.416200,0.805100,1.070300,1.308100
1730865011162,56.958300,25.323900,-75.538100,4.495400,5.006100,6.166500,0.961400,0.964100,1.289400
1730865011172,51.739500,18.056400,-74.334400,4.540300,4.730100,6.700600,0.925600,0.964300,1.366000
1730865011182,50.632900,10.377800,-73.855800,3.865500,4.437900,6.913800,0.788000,0.904700,1.409500
1730865011192,49.556200,10.781500,-74.962400,3.991800,4.640900,6.864700,0.813800,0.946100,1.399500
1730865011202,48.345000,17.114400,-77.676500,4.741500,4.435500,6.730000,0.966600,0.904200,1.372000
1730865011212,45.541200,17.181700,-80.667200,5.174400,4.253500,6.772500,1.054900,0.867100,1.380700
1730865011222,43.971000,10.617000,-78.005500,5.339000,4.695400,7.019800,0.973900,0.905100,1.511100
1730865011232,48.419700,11.162800,-77.242800,4.426500,4.251700,7.827500,0.902400,0.866800,1.595800
1730865011242,50.685200,19.649000,-76.854000,4.852300,4.582800,7.748400,0.989200,0.934300,1.579700
1730865011252,54.363800,25.727600,-82.020500,5.494100,4.108600,7.084400,1.120100,0.837600,1.444300
1730865011262,56.233000,22.191100,-88.682400,5.867100,3.596700,6.936500,1.196100,0.733200,1.414100
1730865011272,54.161900,14.153500,-88.816900,5.568400,3.278100,6.615600,1.010200,0.593300,1.338300
1730865011282,48.614100,5.510400,-90.641300,4.966000,2.910500,6.638900,0.957500,0.534900,1.353500
1730865011292,46.259000,10.960900,-89.063700,4.978600,2.491400,6.441400,1.015000,0.507900,1.313200
1730865011302,42.617700,16.830200,-91.501100,5.691100,2.267400,6.296500,1.160200,0.462200,1.283600
1730865011312,38.752200,16.119900,-93.736700,6.023400,2.327900,6.863500,1.228000,0.474600,1.399200
1730865011321,36.202600,11.835700,-93.572200,5.873100,2.539300,7.165800,1.197300,0.517700,1.460900
1730865011331,35.298000,9.674900,-98.222800,5.719900,2.582400,7.476000,1.184800,0.533500,1.590200
1730865011342,39.671900,11.267500,-105.460300,5.883900,2.776400,7.841200,1.199500,0.566000,1.598600
1730865011351,41.840200,13.121700,-104.809800,5.877900,2.381800,7.654400,1.198300,0.485500,1.560500
1730865011361,43.724300,9.966500,-102.155600,5.483300,1.706400,7.501800,1.117900,0.347900,1.529400
1730865011371,44.980400,5.996300,-96.278800,5.138500,1.274100,7.084400,1.047600,0.259700,1.444300
1730865011381,44.195400,8.538500,-91.074900,5.384600,1.004700,6.998200,1.097700,0.204800,1.426700
1730865011391,41.421500,15.514300,-84.076600,5.548600,0.595100,6.752700,1.209100,0.107100,1.342400
1730865011401,34.871800,18.220900,-84.555200,6.428200,0.556200,6.534800,1.310500,0.113400,1.332200
1730865011411,30.393200,16.635800,-87.224400,6.598200,0.288000,6.543700,1.345200,0.058700,1.334100
1730865011421,24.748200,11.334800,-91.374000,6.304800,0.205300,7.049100,1.285400,0.041800,1.437100
1730865011430,21.107000,10.325400,-91.142200,5.863600,0.234700,7.077800,1.195400,0.047800,1.442900
1730865011440,17.749900,17.563000,-95.067500,6.080300,0.227500,7.012000,1.239600,0.131100,1.391200
1730865011450,12.635800,14.295600,-107.703300,6.001900,0.643000,7.019200,1.167300,0.212800,1.431000
1730865011461,8.650600,8.785200,-105.101400,5.418700,0.801700,7.379600,1.104700,0.163400,1.504500
1730865011470,8.239400,5.914100,-102.163000,5.114500,0.687300,7.493400,1.042700,0.140100,1.527700
1730865011480,10.878700,8.007600,-98.925600,5.176800,-1.005900,7.388000,1.055400,0.205000,1.506200
1730865011491,12.733000,11.633900,-94.768500,5.711500,-1.178900,7.142500,1.164400,0.240300,1.456100
1730865011501,12.157200,12.194600,-91.889900,6.286900,-1.153800,6.941900,1.318800,0.230100,1.373000
1730865011511,7.476800,6.579500,-89.512300,6.751500,0.944800,6.871900,1.376400,0.192600,1.401000
1730865011521,2.945800,7.327200,-94.484400,7.223900,0.561000,6.680300,1.472700,0.114300,1.361900
1730865011531,-2.287900,8.710400,-104.211700,7.396400,0.632200,6.871900,1.507900,0.128900,1.401000
1730865011541,-5.667400,5.031800,-112.458600,6.892800,0.514300,7.342500,1.405200,0.104800,1.496900
1730865011551,-4.650500,5.203800,-113.445500,6.661100,0.255000,7.276600,1.358000,0.052000,1.483500
1730865011561,0.037300,5.816900,-125.752400,6.823400,0.799900,6.794000,1.332200,0.385000,1.324500
1730865011571,0.620500,-6.646800,-125.490700,5.770200,-2.172800,6.747900,1.176300,0.442900,1.375700
1730865011581,1.495300,-12.493700,-111.322100,4.988800,-2.130300,6.957500,1.017000,0.434300,1.418400
1730865011600,7.102900,3.858000,-92.510500,5.754000,-2.201600,6.658700,1.173000,0.448800,1.357500
1730865011611,7.693600,6.908500,-91.501100,6.203600,-2.608700,6.255100,1.233500,0.591100,1.281300
1730865011620,2.923400,-2.452300,-84.727100,5.986300,-2.899700,6.285100,1.112900,0.627500,1.297200
1730865011630,0.912100,-3.544000,-83.740200,4.963000,-3.467300,6.316200,1.011800,0.706900,1.287700
1730865011640,-2.400000,0.732700,-83.104700,5.007300,-3.539200,6.477300,1.020800,0.721500,1.320500
1730865011650,-6.474900,1.532700,-79.328900,5.156400,-3.352400,6.719800,1.051200,0.683400,1.369900
1730865011660,-8.568400,0.762600,-75.373600,5.132500,-3.154200,7.043700,1.046300,0.643000,1.436000
1730865011670,-9.278700,0.837400,-72.390400,5.230100,-2.780600,7.370600,1.169900,0.445900,1.480100
1730865011680,-4.291600,0.007400,-65.758500,6.068300,-2.368600,7.086800,1.237100,0.482900,1.444800
1730865011690,-1.899100,-6.190700,-69.033300,5.888100,-2.821300,6.950900,1.200400,0.575100,1.417100
1730865011701,-2.332700,-11.245100,-69.900600,5.509100,-3.142800,7.043700,1.123100,0.640700,1.436000
1730865011720,-3.745800,-13.495600,-73.788600,5.046900,-3.434400,7.116800,1.028900,0.700100,1.450900
1730865011740,-2.975700,-10.953500,-72.487600,4.983400,-3.826600,6.866500,1.015900,0.780100,1.399900
1730865011760,-2.504700,-14.490000,-64.756600,4.363700,-4.420600,6.995800,0.889600,0.901200,1.426200
1730865011780,-4.934600,-12.568500,-58.663000,3.994200,-4.454100,7.270600,0.814300,0.855700,1.523500
1730865011800,5.487900,-9.906700,-36.815700,3.917600,-4.371500,7.927500,0.798700,0.891200,1.616200
1730865011810,8.703000,-9.390800,-30.415600,3.990100,-4.294200,7.741300,0.813400,0.875400,1.578200
1730865011820,11.035700,-6.310400,-26.333300,4.208600,-4.302000,7.457400,0.858000,0.877000,1.520300
1730865011830,11.985300,-4.628100,-27.462300,4.339100,-4.590600,7.173600,0.884600,0.935900,1.462500
1730865011840,11.678700,-5.779500,-27.395000,4.300800,-4.995400,7.022100,0.845300,-1.007500,1.462500
1730865011859,2.228000,-3.529000,-17.989100,4.099600,-4.438500,7.405900,0.835800,0.904900,1.509800
1730865011869,1.659800,0.994400,-16.493800,4.436100,-4.145100,7.538900,0.904400,0.845000,1.536900
1730865011880,3.379500,3.297200,-14.183500,4.642100,-4.181700,7.478400,0.946400,0.852500,1.524600
1730865011890,5.099100,1.779400,-13.450700,4.624700,-4.408600,7.386800,0.942800,0.898800,1.505900
1730865011900,6.362700,-4.149600,-5.697300,4.291800,-4.737900,7.316100,0.800400,0.979900,1.484900
1730865011910,5.099100,-3.237400,-4.523400,3.732000,-4.774400,7.173600,0.760800,0.973300,1.462500
1730865011919,3.910300,1.211200,-5.405700,3.946900,-4.702600,7.272400,0.804600,0.958700,1.482600
1730865011929,2.295300,5.054300,-6.310400,4.264900,-4.417000,7.356900,0.869500,0.900500,1.499800
1730865011939,0.882200,8.441300,-6.527200,4.589400,-3.981100,7.346100,0.935600,0.811600,1.497600
1730865011949,0.500900,11.312400,-9.832000,4.935500,-3.667900,7.362800,1.006200,0.749500,1.463100
1730865011960,2.407500,12.688100,-17.877000,5.132500,-3.676300,7.176600,1.060900,0.821500,1.442600
1730865011970,1.457900,10.063700,-20.127500,4.947500,-4.385200,7.033500,1.008600,0.894000,1.433900
1730865011978,0.538300,6.287900,-20.254600,4.406800,-4.518200,7.181400,0.898400,0.921100,1.464100
1730865011989,-3.050500,7.633800,-18.976100,3.972100,-4.531900,7.076000,0.809800,0.923900,1.442600
1730865012000,-5.144000,13.428300,-21.077100,3.966100,-4.501400,6.998800,0.808500,0.917700,1.426800
1730865012009,-6.093500,18.684500,-25.256600,4.187600,-4.611600,7.006000,0.875800,0.977400,1.389700
1730865012019,-8.269300,21.338800,-24.052800,4.344500,-4.674400,6.789200,0.885700,0.953000,1.384100
1730865012029,-9.458100,21.660300,-23.125700,4.370300,-4.470300,6.686200,0.890900,0.911300,1.363100
1730865012039,-9.974000,23.671500,-23.536900,4.530700,-4.350500,6.628800,0.923700,0.886900,1.351400
1730865012049,-10.781500,26.841700,-25.174400,4.669000,-4.400200,6.548500,0.951900,0.897000,1.335000
1730865012069,-14.250700,25.234200,-30.049200,4.558300,-4.519400,6.824600,0.876000,0.942100,1.391100
1730865012088,-17.757400,27.058500,-36.083000,4.341500,-4.978000,6.362900,0.885100,-1.014800,1.297200
1730865012109,-13.974100,27.948300,-23.514500,4.991800,-4.676800,6.125800,1.017700,0.953400,1.248900
1730865012129,-11.723600,15.977900,-11.357200,4.717500,-4.812700,6.652700,0.896400,0.920600,1.355200
1730865012149,-7.955300,22.722000,-13.794700,4.774400,-4.602000,6.626400,0.973300,0.938200,1.350900
1730865012159,-7.379600,23.716400,-15.170400,4.978600,-4.794800,6.412000,1.015000,0.977500,1.307200
1730865012169,-8.516000,22.004200,-13.495600,4.971400,-4.902000,6.258700,1.013500,0.999300,1.276000
1730865012179,-10.557200,19.738700,-11.364700,4.791800,-4.937900,6.087500,0.940400,0.997600,1.234400
1730865012199,-14.280700,25.107100,-8.030000,4.862400,-4.594800,5.967100,0.991300,0.936700,1.216500
1730865012209,-12.486200,26.049100,-8.493600,5.174400,-4.680400,5.679700,1.054900,0.954200,1.157900
1730865012218,-11.282500,21.293900,-12.037600,5.212700,-5.080400,5.619900,1.062700,-1.035700,1.145700
1730865012239,-13.331100,2.459800,0.463500,5.094200,-4.597800,6.100700,1.065500,0.856600,1.278500
1730865012249,-7.895500,-2.646700,-1.428000,5.177400,-4.249900,6.578500,1.055500,0.866400,1.341100
1730865012259,-3.835600,-6.908500,0.157000,4.958200,-4.281600,6.771300,1.010800,0.872900,1.380400
1730865012268,-1.128900,-6.587000,3.297200,4.802600,-4.261300,6.592200,0.979100,0.868700,1.343900
1730865012278,0.568200,-2.542100,0.844800,4.997200,-4.460100,6.368900,1.018700,0.909300,1.298400
1730865012288,0.209300,0.904600,-4.396300,5.225300,-4.707400,6.273100,1.065300,0.990900,1.282200
1730865012298,-6.751500,2.512200,-4.261700,5.130700,-4.863000,6.289300,1.008300,0.948400,1.303200
1730865012308,-10.175900,5.929100,-5.443100,4.743300,-4.593600,6.440200,0.967000,0.936500,1.312900
1730865012319,-11.955400,11.005800,-8.336600,4.727700,-4.611600,6.453900,0.963800,0.940100,1.315700
1730865012329,-13.465700,16.030200,-10.632000,4.981000,-4.564900,6.438400,1.015500,0.930600,1.312600
1730865012347,-13.533000,13.368500,-8.403900,4.856500,-4.860600,6.319800,0.955300,-1.008000,1.297100
1730865012368,-15.559200,8.261800,0.643000,4.742100,-4.639700,6.271900,0.966700,0.945900,1.278600
1730865012378,-15.566700,9.196400,0.373800,5.098300,-4.338500,6.256300,1.039400,0.884500,1.275500
1730865012388,-14.564800,8.314200,-3.013100,5.351600,-4.103800,6.291100,1.091000,0.836600,1.282500
1730865012398,-12.389000,7.820700,-1.555100,5.374400,-4.214600,6.151000,1.095700,0.859200,1.254000
