timestamp,Gyro_x,Gyro_y,Gyro_z,Accel_x,Accel_y,Accel_z,Mag_x,Mag_y,Mag_z,Corrected_Mag_x,Corrected_Mag_y,Corrected_Mag_z
1730864996540,-4.6655,0.8598,-1.6299,0.2568,-7.4988,-6.4617,0.0523,-1.5288,-1.3173,-0.21310536815379,-1.50433210010881,-1.8862110748398
1730864996541,-4.6206,0.8374,-1.5626,0.2598,-7.4982,-6.4569,0.0529,-1.5286,-1.3164,-0.21250536815379,-1.50413210010881,-1.8853110748398
1730864996541,-4.658,0.8448,-1.5327,0.2562,-7.5071,-6.4665,0.0526,-1.5317,-1.3178,-0.21280536815379,-1.50723210010881,-1.8867110748398
1730864996541,-4.7178,0.8673,-1.6224,0.2568,-7.4982,-6.4569,0.0523,-1.5286,-1.3164,-0.21310536815379,-1.50413210010881,-1.8853110748398
1730864996541,-4.8225,0.8897,-1.6149,0.2526,-7.497,-6.4599,0.0515,-1.5284,-1.317,-0.21390536815379,-1.50393210010881,-1.8859110748398
1730864996542,-4.7328,0.7252,-1.5925,0.2514,-7.5119,-6.4593,0.0513,-1.5314,-1.3168,-0.21410536815379,-1.50693210010881,-1.8857110748398
1730864996542,-4.8225,0.8747,-1.7495,0.2598,-7.4982,-6.4593,0.0529,-1.5286,-1.3168,-0.21250536815379,-1.50413210010881,-1.8857110748398
1730864996542,-4.7253,0.8598,-1.6075,0.2622,-7.5143,-6.4647,0.0534,-1.5319,-1.3179,-0.21200536815379,-1.50743210010881,-1.8868110748398
1730864996543,-4.8898,0.8673,-1.6748,0.2658,-7.5095,-6.4641,0.0541,-1.531,-1.3178,-0.21130536815379,-1.50653210010881,-1.8867110748398
1730864996543,-4.8599,0.9121,-1.6598,0.2574,-7.4946,-6.4587,0.0524,-1.5279,-1.3167,-0.21300536815379,-1.50343210010881,-1.8856110748398
1730864996543,-4.8823,0.9196,-1.6149,0.261,-7.4988,-6.4653,0.0532,-1.5288,-1.3181,-0.21220536815379,-1.50433210010881,-1.8870110748398
1730864996544,-4.815,0.8074,-1.6374,0.2562,-7.5029,-6.4581,0.0522,-1.5296,-1.3166,-0.21320536815379,-1.50513210010881,-1.8855110748398
1730864996544,-4.8449,0.8374,-1.6,0.2514,-7.497,-6.4581,0.0512,-1.5284,-1.3166,-0.21420536815379,-1.50393210010881,-1.8855110748398
1730864996544,-4.8225,0.9121,-1.6748,0.2556,-7.5083,-6.4563,0.0541,-1.5296,-1.3189,-0.21130536815379,-1.50513210010881,-1.8878110748398
1730864996545,-4.8973,0.8598,-1.6673,0.2526,-7.5065,-6.4569,0.0515,-1.5303,-1.3164,-0.21390536815379,-1.50583210010881,-1.8853110748398
1730864996545,-4.8823,0.9121,-1.6374,0.252,-7.5035,-6.4617,0.0513,-1.5297,-1.3173,-0.21410536815379,-1.50523210010881,-1.8862110748398
1730864996545,-4.673,0.7701,-1.6598,0.2526,-7.5018,-6.4695,0.0516,-1.5284,-1.3181,-0.21380536815379,-1.50393210010881,-1.8870110748398
1730864996546,-4.7402,0.8897,-1.5776,0.2478,-7.5083,-6.4569,0.0505,-1.5307,-1.3164,-0.21490536815379,-1.50623210010881,-1.8853110748398
1730864996546,-4.8823,-1.0467,-1.6448,0.2538,-7.5065,-6.4557,0.0517,-1.5303,-1.3161,-0.21370536815379,-1.50583210010881,-1.8850110748398
1730864996546,-4.6057,0.9046,-1.7196,0.2616,-7.5023,-6.4617,0.0528,-1.5297,-1.3184,-0.21260536815379,-1.50523210010881,-1.8873110748398
1730864996547,-4.7926,0.8822,-1.6075,0.258,-7.5083,-6.4701,0.0526,-1.5307,-1.319,-0.21280536815379,-1.50623210010881,-1.8879110748398
1730864996547,-4.7627,0.8598,-1.6448,0.2412,-7.5018,-6.4515,0.0491,-1.5294,-1.3153,-0.21630536815379,-1.50493210010881,-1.8842110748398
1730864996547,-4.7328,0.8972,-1.6299,0.2586,-7.5035,-6.4629,0.0532,-1.5297,-1.3176,-0.21220536815379,-1.50523210010881,-1.8865110748398
1730864996547,-4.8075,0.8523,-1.6299,0.2502,-7.5023,-6.4665,0.051,-1.5295,-1.3183,-0.21440536815379,-1.50503210010881,-1.8872110748398
1730864996548,-4.9571,0.8149,-1.6374,0.2526,-7.5041,-6.4587,0.0515,-1.5299,-1.3167,-0.21390536815379,-1.50543210010881,-1.8856110748398
1730864996548,-4.5982,0.7476,-1.5327,0.258,-7.5089,-6.4611,0.0526,-1.5308,-1.3172,-0.21280536815379,-1.50633210010881,-1.8861110748398
1730864996548,-4.9047,0.7925,-1.5327,0.2562,-7.5012,-6.4485,0.0522,-1.5292,-1.3146,-0.21320536815379,-1.50473210010881,-1.8835110748398
1730864996549,-4.7851,0.9196,-1.585,0.255,-7.4964,-6.4563,0.052,-1.5283,-1.3162,-0.21340536815379,-1.50383210010881,-1.8851110748398
1730864996549,-4.8599,0.8224,-1.7121,0.2646,-7.5101,-6.4701,0.0539,-1.5311,-1.319,-0.21150536815379,-1.50663210010881,-1.8879110748398
1730864996549,-4.7178,0.9046,-1.5925,0.2532,-7.4994,-6.4557,0.0516,-1.5289,-1.3161,-0.21380536815379,-1.50443210010881,-1.8850110748398
1730864996550,-4.9945,0.8673,-1.6598,0.2532,-7.4994,-6.4593,0.0521,-1.5305,-1.3173,-0.21330536815379,-1.50603210010881,-1.8862110748398
1730864996550,-4.7851,0.8074,-1.6523,0.261,-7.5006,-6.4653,0.0532,-1.5291,-1.3181,-0.21220536815379,-1.50463210010881,-1.8870110748398
1730864996550,-4.83,0.9121,-1.6299,0.2556,-7.5083,-6.4545,0.0521,-1.5307,-1.3159,-0.21330536815379,-1.50623210010881,-1.8848110748398
1730864996550,-4.7776,0.785,-1.6374,0.2424,-7.5,-6.4551,0.0516,-1.5301,-1.3166,-0.21380536815379,-1.50563210010881,-1.8855110748398
1730864996551,-4.6281,0.8224,-1.6673,0.2652,-7.5143,-6.4641,0.054,-1.5319,-1.3178,-0.21140536815379,-1.50743210010881,-1.8867110748398
1730864996551,-4.658,0.7775,-1.5177,0.2622,-7.4928,-6.4533,0.0534,-1.5275,-1.3156,-0.21200536815379,-1.50303210010881,-1.8845110748398
1730864996551,-4.486,0.7626,-1.6822,0.2616,-7.4694,-6.4162,0.0526,-1.5305,-1.317,-0.21280536815379,-1.50603210010881,-1.8859110748398
1730864996552,-4.6057,0.8299,-1.6598,0.2598,-7.5353,-6.4964,0.0529,-1.5362,-1.3244,-0.21250536815379,-1.51173210010881,-1.8933110748398
1730864996552,-5.0318,0.8,-1.6299,0.267,-7.4922,-6.4629,0.0544,-1.5274,-1.3176,-0.21100536815379,-1.50293210010881,-1.8865110748398
1730864996552,-4.987,0.9495,-1.4953,0.2604,-7.5071,-6.4635,0.0533,-1.5305,-1.3177,-0.21210536815379,-1.50603210010881,-1.8866110748398
1730864996553,-4.9122,0.785,-1.6972,0.2688,-7.5341,-6.4833,0.0548,-1.536,-1.3217,-0.21060536815379,-1.51153210010881,-1.8906110748398
1730864996553,-5.0318,0.8673,-1.5776,0.2568,-7.4946,-6.4521,0.0523,-1.5279,-1.3154,-0.21310536815379,-1.50343210010881,-1.8843110748398
1730864996553,-4.8973,0.9346,-1.5476,0.2395,-7.5323,-6.4653,0.0488,-1.5356,-1.3181,-0.21660536815379,-1.51113210010881,-1.8870110748398
1730864996554,-4.7926,0.7402,-1.6149,0.2712,-7.5437,-6.4988,0.0552,-1.5379,-1.3249,-0.21020536815379,-1.51343210010881,-1.8938110748398
1730864996554,-4.9496,0.7775,-1.4505,0.2766,-7.5107,-6.4713,0.0563,-1.5312,-1.288,-0.20910536815379,-1.50673210010881,-1.8569110748398
1730864996554,-5.1814,-1.0467,-1.3458,0.243,-7.4928,-6.4414,0.0495,-1.5275,-1.3132,-0.21590536815379,-1.50303210010881,-1.8821110748398
1730864996555,-4.9421,0.8224,-1.6224,0.2598,-7.5035,-6.4605,0.0529,-1.5297,-1.3171,-0.21250536815379,-1.50523210010881,-1.8860110748398
1730864996555,-4.9945,0.7551,-1.428,0.2664,-7.5389,-6.4713,0.0523,-1.5411,-1.3222,-0.21310536815379,-1.51663210010881,-1.8911110748398
1730864996555,-5.1664,0.8448,-1.3981,0.2562,-7.5137,-6.4432,0.0522,-1.5318,-1.3135,-0.21320536815379,-1.50733210010881,-1.8824110748398
1730864996555,-5.3533,-1.0766,-1.2486,0.252,-7.5371,-6.4575,0.0513,-1.5366,-1.3165,-0.21410536815379,-1.51213210010881,-1.8854110748398
1730864996556,-5.4281,-1.0766,-1.4355,0.2544,-7.5119,-6.4599,0.0546,-1.5272,-1.3123,-0.21080536815379,-1.50273210010881,-1.8812110748398
1730864996556,-5.4356,0.8897,-1.4205,0.2424,-7.4844,-6.424,0.0494,-1.5258,-1.3096,-0.21600536815379,-1.50133210010881,-1.8785110748398
1730864996556,-5.3384,0.8897,-1.6523,0.2622,-7.5047,-6.4437,0.0534,-1.53,-1.3137,-0.21200536815379,-1.50553210010881,-1.8826110748398
1730864996557,-5.3085,-1.0093,-1.443,0.2514,-7.4706,-6.4114,0.0463,-1.5346,-1.316,-0.21910536815379,-1.51013210010881,-1.8849110748398
1730864996557,-5.2487,-1.1738,-1.4205,0.2239,-7.4473,-6.3941,0.0456,-1.5183,-1.3035,-0.21980536815379,-1.49383210010881,-1.8724110748398
1730864996557,-5.2711,0.785,-1.9439,0.2544,-7.5574,-6.4222,0.0518,-1.5407,-1.3093,-0.21360536815379,-1.51623210010881,-1.8782110748398
1730864996558,-4.9945,0.8448,-1.5028,0.2628,-7.4892,-6.3785,0.0479,-1.5268,-1.3004,-0.21750536815379,-1.50233210010881,-1.8693110748398
1730864996558,-4.7627,0.9346,-1.5551,0.2299,-7.5401,-6.4665,0.0468,-1.5372,-1.3183,-0.21860536815379,-1.51273210010881,-1.8872110748398
1730864996558,-4.8075,0.7102,-1.914,0.264,-7.5,-6.4246,0.0538,-1.529,-1.3098,-0.21160536815379,-1.50453210010881,-1.8787110748398
1730864996559,-4.9571,-1.0617,-1.3308,0.2406,-7.5341,-6.4282,0.049,-1.536,-1.3105,-0.21640536815379,-1.51153210010881,-1.8794110748398
1730864996559,-4.9122,0.8523,-1.6822,0.2329,-7.5161,-6.436,0.0474,-1.5323,-1.3121,-0.21800536815379,-1.50783210010881,-1.8810110748398
1730864996559,-4.7926,0.8074,-1.7346,0.2544,-7.5251,-6.4671,0.0518,-1.5341,-1.3184,-0.21360536815379,-1.50963210010881,-1.8873110748398
1730864996560,-4.9122,0.9121,-1.585,0.2508,-7.5269,-6.4252,0.0511,-1.5345,-1.3099,-0.21430536815379,-1.51003210010881,-1.8788110748398
1730864996560,-4.9945,-1.0243,-1.5252,0.2383,-7.5227,-6.4216,0.0485,-1.5336,-1.3092,-0.21690536815379,-1.50913210010881,-1.8781110748398
1730864996560,-4.9122,0.8448,-1.7944,0.249,-7.5311,-6.4479,0.0522,-1.5335,-1.3123,-0.21320536815379,-1.50903210010881,-1.8812110748398
1730864996560,-4.8449,0.8299,-1.5626,0.2389,-7.5299,-6.4342,0.0487,-1.5351,-1.3117,-0.21670536815379,-1.51063210010881,-1.8806110748398
1730864996561,-4.9945,0.9794,-1.5252,0.2335,-7.5239,-6.4378,0.0476,-1.5339,-1.3125,-0.21780536815379,-1.50943210010881,-1.8814110748398
1730864996561,-4.6131,0.8074,-1.8168,0.2526,-7.5329,-6.4372,0.0528,-1.5355,-1.3137,-0.21260536815379,-1.51103210010881,-1.8826110748398
1730864996561,-4.972,0.9121,-1.5252,0.255,-7.5257,-6.4402,0.052,-1.5343,-1.3129,-0.21340536815379,-1.50983210010881,-1.8818110748398
1730864996562,-4.8449,0.8673,-1.4729,0.2341,-7.5203,-6.436,0.0477,-1.5332,-1.3121,-0.21770536815379,-1.50873210010881,-1.8810110748398
1730864996562,-4.658,0.8299,-1.8467,0.2448,-7.5197,-6.4485,0.052,-1.5343,-1.3148,-0.21340536815379,-1.50983210010881,-1.8837110748398
1730864996562,-4.83,0.9944,-1.7196,0.2508,-7.5257,-6.4324,0.0511,-1.5343,-1.3114,-0.21430536815379,-1.50983210010881,-1.8803110748398
1730864996563,-4.7627,0.8523,-1.5177,0.2406,-7.5311,-6.4366,0.049,-1.5354,-1.3122,-0.21640536815379,-1.51093210010881,-1.8811110748398
1730864996563,-4.6281,0.7252,-1.6673,0.2574,-7.5227,-6.4587,0.051,-1.5336,-1.3167,-0.21440536815379,-1.50913210010881,-1.8856110748398
1730864996563,-4.8225,0.7701,-1.6299,0.249,-7.5329,-6.4288,0.0507,-1.5357,-1.3106,-0.21470536815379,-1.51123210010881,-1.8795110748398
1730864996563,-4.7776,0.957,-1.5252,0.2412,-7.5299,-6.4186,0.0491,-1.5351,-1.3085,-0.21630536815379,-1.51063210010881,-1.8774110748398
1730864996564,-4.6131,0.8,-1.6972,0.2496,-7.5209,-6.4551,0.0509,-1.5333,-1.316,-0.21450536815379,-1.50883210010881,-1.8849110748398
1730864996564,-4.6505,0.8598,-1.6075,0.2478,-7.5251,-6.4515,0.0505,-1.5341,-1.3153,-0.21490536815379,-1.50963210010881,-1.8842110748398
1730864996564,-4.9421,0.8598,-1.6224,0.2395,-7.5161,-6.4324,0.0488,-1.5323,-1.3114,-0.21660536815379,-1.50783210010881,-1.8803110748398
1730864996565,-4.7776,0.8374,-1.6822,0.2496,-7.5137,-6.4408,0.0509,-1.5318,-1.3131,-0.21450536815379,-1.50733210010881,-1.8820110748398
1730864996565,-4.9645,0.8149,-1.6673,0.2454,-7.5239,-6.4437,0.05,-1.5339,-1.3137,-0.21540536815379,-1.50943210010881,-1.8826110748398
1730864996565,-4.8075,0.8972,-1.5776,0.2377,-7.5353,-6.4348,0.0502,-1.5354,-1.31,-0.21520536815379,-1.51093210010881,-1.8789110748398
1730864996566,-4.8674,0.8598,-1.7196,0.2466,-7.5281,-6.4378,0.0502,-1.5347,-1.3125,-0.21520536815379,-1.51023210010881,-1.8814110748398
1730864996566,-4.9122,0.8149,-1.6897,0.2562,-7.5227,-6.4503,0.0522,-1.5336,-1.315,-0.21320536815379,-1.50913210010881,-1.8839110748398
1730864996566,-4.972,0.8822,-1.5776,0.246,-7.5167,-6.4408,0.0502,-1.5347,-1.3111,-0.21520536815379,-1.51023210010881,-1.8800110748398
1730864996567,-4.9346,0.9121,-1.6897,0.2436,-7.5293,-6.4312,0.0496,-1.535,-1.3111,-0.21580536815379,-1.51053210010881,-1.8800110748398
1730864996567,-4.7851,0.7252,-1.6673,0.2526,-7.5239,-6.4443,0.0515,-1.5339,-1.3138,-0.21390536815379,-1.50943210010881,-1.8827110748398
1730864996567,-4.7776,0.8448,-1.6149,0.2395,-7.5263,-6.4324,0.05,-1.5333,-1.3116,-0.21540536815379,-1.50883210010881,-1.8805110748398
1730864996568,-4.8524,0.8673,-1.742,0.2508,-7.5227,-6.4426,0.0511,-1.5336,-1.3134,-0.21430536815379,-1.50913210010881,-1.8823110748398
1730864996568,-4.6505,0.8299,-1.5701,0.2383,-7.5287,-6.4354,0.0485,-1.5349,-1.312,-0.21690536815379,-1.51043210010881,-1.8809110748398
1730864996568,-5.0318,0.9046,-1.6598,0.2412,-7.5311,-6.4366,0.0507,-1.5354,-1.3122,-0.21470536815379,-1.51093210010881,-1.8811110748398
1730864996568,-4.83,0.8822,-1.6149,0.2472,-7.5233,-6.4408,0.0504,-1.5338,-1.3131,-0.21500536815379,-1.50933210010881,-1.8820110748398
1730864996569,-4.8524,0.8822,-1.772,0.2466,-7.5329,-6.4336,0.0502,-1.5357,-1.3116,-0.21520536815379,-1.51123210010881,-1.8805110748398
1730864996569,-4.9645,0.9046,-1.6748,0.2472,-7.5179,-6.4414,0.0504,-1.5327,-1.3132,-0.21500536815379,-1.50823210010881,-1.8821110748398
1730864996569,-5.0169,0.9271,-1.7121,0.2389,-7.5281,-6.4378,0.0487,-1.5347,-1.3125,-0.21670536815379,-1.51023210010881,-1.8814110748398
1730864996570,-4.815,0.8,-1.6374,0.2496,-7.5281,-6.4437,0.0509,-1.5347,-1.3118,-0.21450536815379,-1.51023210010881,-1.8807110748398
1730864996570,-4.8449,0.942,-1.7271,0.2502,-7.5275,-6.4372,0.051,-1.5346,-1.3123,-0.21440536815379,-1.51013210010881,-1.8812110748398
1730864996570,-4.8674,0.8074,-1.7047,0.2496,-7.5329,-6.4318,0.0509,-1.5357,-1.3112,-0.21450536815379,-1.51123210010881,-1.8801110748398
1730864996571,-4.9272,0.8598,-1.6149,0.2532,-7.5287,-6.439,0.0502,-1.5327,-1.311,-0.21520536815379,-1.50823210010881,-1.8799110748398
1730864996571,-4.8674,0.9196,-1.6822,0.2514,-7.5257,-6.4294,0.0512,-1.5343,-1.3107,-0.21420536815379,-1.50983210010881,-1.8796110748398
1730864996571,-4.815,0.8299,-1.585,0.2502,-7.5221,-6.4396,0.051,-1.5335,-1.3128,-0.21440536815379,-1.50903210010881,-1.8817110748398
1730864996572,-4.9421,0.7701,-1.7121,0.2454,-7.5245,-6.442,0.0511,-1.5339,-1.3133,-0.21430536815379,-1.50943210010881,-1.8822110748398
1730864996572,-4.8374,0.8897,-1.6523,0.2508,-7.5269,-6.4449,0.0511,-1.5345,-1.3139,-0.21430536815379,-1.51003210010881,-1.8828110748398
1730864996572,-4.9571,0.8673,-1.6075,0.2484,-7.5293,-6.4455,0.0506,-1.535,-1.314,-0.21480536815379,-1.51053210010881,-1.8829110748398
1730864996572,-4.8001,0.8299,-1.6075,0.2436,-7.5269,-6.4372,0.0502,-1.5338,-1.31,-0.21520536815379,-1.50933210010881,-1.8789110748398
1730864996573,-4.7328,0.8747,-1.5551,0.2466,-7.5293,-6.4366,0.0502,-1.535,-1.3122,-0.21520536815379,-1.51053210010881,-1.8811110748398
1730864996573,-4.7253,0.8673,-1.6,0.2424,-7.5311,-6.4336,0.0494,-1.5354,-1.3116,-0.21600536815379,-1.51093210010881,-1.8805110748398
1730864996573,-4.7402,0.8523,-1.6149,0.2454,-7.5311,-6.43,0.0515,-1.5354,-1.3109,-0.21390536815379,-1.51093210010881,-1.8798110748398
1730864996574,-4.7627,0.8897,-1.6374,0.2556,-7.5305,-6.4318,0.0521,-1.5352,-1.3112,-0.21330536815379,-1.51073210010881,-1.8801110748398
1730864996574,-4.9346,0.957,-1.6,0.2389,-7.5275,-6.4324,0.0487,-1.5346,-1.3114,-0.21670536815379,-1.51013210010881,-1.8803110748398
1730864996574,-4.8823,0.7701,-1.6897,0.2514,-7.5299,-6.433,0.0512,-1.5351,-1.3115,-0.21420536815379,-1.51063210010881,-1.8804110748398
1730864996575,-4.7253,0.942,-1.6598,0.2538,-7.5335,-6.4318,0.0517,-1.5358,-1.3112,-0.21370536815379,-1.51133210010881,-1.8801110748398
1730864996575,-4.815,0.8374,-1.5327,0.2418,-7.5287,-6.4437,0.0493,-1.5349,-1.3125,-0.21610536815379,-1.51043210010881,-1.8814110748398
1730864996575,-4.9047,0.9346,-1.6972,0.246,-7.5347,-6.43,0.0501,-1.5361,-1.3109,-0.21530536815379,-1.51163210010881,-1.8798110748398
1730864996576,-4.9047,0.8374,-1.6,0.2502,-7.5305,-6.4282,0.051,-1.5352,-1.3105,-0.21440536815379,-1.51073210010881,-1.8794110748398
1730864996576,-4.972,0.8747,-1.6673,0.2442,-7.5251,-6.436,0.0509,-1.5327,-1.3125,-0.21450536815379,-1.50823210010881,-1.8814110748398
1730864996576,-4.8001,0.7701,-1.6299,0.2538,-7.5281,-6.4348,0.0517,-1.5347,-1.3118,-0.21370536815379,-1.51023210010881,-1.8807110748398
1730864996576,-4.8973,0.8972,-1.6299,0.2478,-7.5281,-6.4306,0.0505,-1.5347,-1.311,-0.21490536815379,-1.51023210010881,-1.8799110748398
1730864996577,-4.9122,0.8598,-1.7495,0.2466,-7.5329,-6.4402,0.0513,-1.5356,-1.3135,-0.21410536815379,-1.51113210010881,-1.8824110748398
1730864996577,-4.8449,0.8897,-1.6448,0.2538,-7.5191,-6.4432,0.0517,-1.5329,-1.3135,-0.21370536815379,-1.50843210010881,-1.8824110748398
1730864996577,-4.6954,0.8374,-1.5925,0.2389,-7.5323,-6.436,0.0487,-1.5356,-1.3121,-0.21670536815379,-1.51113210010881,-1.8810110748398
1730864996578,-4.8075,0.8224,-1.5776,0.246,-7.5245,-6.433,0.0505,-1.5347,-1.3126,-0.21490536815379,-1.51023210010881,-1.8815110748398
1730864996578,-4.6804,0.7177,-1.6149,0.2502,-7.5347,-6.436,0.051,-1.5361,-1.3121,-0.21440536815379,-1.51163210010881,-1.8810110748398
1730864996578,-4.5982,0.8224,-1.5252,0.249,-7.5275,-6.4384,0.0507,-1.5346,-1.3126,-0.21470536815379,-1.51013210010881,-1.8815110748398
1730864996579,-4.6206,0.8523,-1.6598,0.249,-7.5383,-6.43,0.0501,-1.5368,-1.3109,-0.21530536815379,-1.51233210010881,-1.8798110748398
1730864996579,-4.8001,0.8897,-1.6523,0.249,-7.5251,-6.4366,0.0507,-1.5341,-1.3122,-0.21470536815379,-1.50963210010881,-1.8811110748398
1730864996579,-4.8001,0.9346,-1.7196,0.2484,-7.5299,-6.4449,0.0506,-1.5351,-1.3139,-0.21480536815379,-1.51063210010881,-1.8828110748398
1730864996580,-4.6281,0.7701,-1.6,0.2442,-7.5263,-6.4426,0.0498,-1.5344,-1.3134,-0.21560536815379,-1.50993210010881,-1.8823110748398
1730864996580,-4.643,0.957,-1.6149,0.2478,-7.5251,-6.442,0.0505,-1.5341,-1.3133,-0.21490536815379,-1.50963210010881,-1.8822110748398
1730864996580,-4.6655,0.8374,-1.5701,0.2359,-7.5281,-6.43,0.048,-1.5347,-1.3095,-0.21740536815379,-1.51023210010881,-1.8784110748398
1730864996581,-4.7328,0.8149,-1.6149,0.2538,-7.5257,-6.4426,0.0517,-1.5343,-1.3134,-0.21370536815379,-1.50983210010881,-1.8823110748398
1730864996581,-4.5683,0.7701,-1.6075,0.2448,-7.5347,-6.4228,0.0499,-1.5361,-1.3094,-0.21550536815379,-1.51163210010881,-1.8783110748398
1730864996581,-4.9346,0.9271,-1.6972,0.2406,-7.5311,-6.424,0.0499,-1.5345,-1.312,-0.21550536815379,-1.51003210010881,-1.8809110748398
1730864996581,-4.7776,0.8747,-1.6299,0.2562,-7.5197,-6.4366,0.0522,-1.533,-1.3122,-0.21320536815379,-1.50853210010881,-1.8811110748398
1730864996582,-4.8748,0.8747,-1.742,0.2562,-7.5263,-6.4336,0.0522,-1.5344,-1.3116,-0.21320536815379,-1.50993210010881,-1.8805110748398
1730864996582,-4.9571,0.9046,-1.6299,0.2383,-7.5317,-6.433,0.0493,-1.5345,-1.312,-0.21610536815379,-1.51003210010881,-1.8809110748398
1730864996582,-4.7776,0.8598,-1.6448,0.249,-7.5323,-6.427,0.0507,-1.5356,-1.3103,-0.21470536815379,-1.51113210010881,-1.8792110748398
1730864996583,-4.7627,0.8897,-1.5925,0.2454,-7.5287,-6.4252,0.05,-1.5349,-1.3099,-0.21540536815379,-1.51043210010881,-1.8788110748398
1730864996583,-4.7178,0.8374,-1.6448,0.243,-7.5173,-6.4234,0.0505,-1.5341,-1.3118,-0.21490536815379,-1.50963210010881,-1.8807110748398
1730864996583,-4.6505,0.8,-1.6897,0.2478,-7.5293,-6.4372,0.0505,-1.535,-1.3123,-0.21490536815379,-1.51053210010881,-1.8812110748398
1730864996584,-4.6057,0.8972,-1.5476,0.2406,-7.5299,-6.4294,0.049,-1.5351,-1.3107,-0.21640536815379,-1.51063210010881,-1.8796110748398
1730864996584,-4.7103,0.8149,-1.5327,0.246,-7.5305,-6.436,0.0501,-1.5352,-1.3121,-0.21530536815379,-1.51073210010881,-1.8810110748398
1730864996584,-4.7328,0.942,-1.5925,0.2532,-7.5305,-6.4414,0.0516,-1.5352,-1.3132,-0.21380536815379,-1.51073210010881,-1.8821110748398
1730864996585,-4.9122,0.9719,-1.6,0.2395,-7.5335,-6.439,0.0488,-1.5358,-1.3127,-0.21660536815379,-1.51133210010881,-1.8816110748398
1730864996585,-4.7178,0.8074,-1.6374,0.2383,-7.5341,-6.4294,0.0485,-1.536,-1.3107,-0.21690536815379,-1.51153210010881,-1.8796110748398
1730864996585,-4.6655,0.8,-1.6224,0.2544,-7.5197,-6.4426,0.0518,-1.533,-1.3134,-0.21360536815379,-1.50853210010881,-1.8823110748398
1730864996585,-4.83,0.8598,-1.6224,0.246,-7.5251,-6.4294,0.0501,-1.5341,-1.3103,-0.21530536815379,-1.50963210010881,-1.8792110748398
1730864996586,-4.8075,0.8448,-1.6972,0.2424,-7.5329,-6.4384,0.0494,-1.5357,-1.3126,-0.21600536815379,-1.51123210010881,-1.8815110748398
1730864996586,-4.6879,0.8224,-1.5776,0.2514,-7.5359,-6.4366,0.0512,-1.5363,-1.3122,-0.21420536815379,-1.51183210010881,-1.8811110748398
1730864996586,-4.9571,0.9271,-1.5925,0.2442,-7.5317,-6.4276,0.0502,-1.5345,-1.309,-0.21520536815379,-1.51003210010881,-1.8779110748398
1730864996587,-4.7627,0.8374,-1.6299,0.2466,-7.5329,-6.4282,0.0502,-1.5357,-1.3105,-0.21520536815379,-1.51123210010881,-1.8794110748398
1730864996587,-4.658,0.8149,-1.6299,0.243,-7.5251,-6.4437,0.0495,-1.5341,-1.3137,-0.21590536815379,-1.50963210010881,-1.8826110748398
1730864996587,-4.6804,0.8598,-1.6224,0.2442,-7.5341,-6.4264,0.0502,-1.5339,-1.3123,-0.21520536815379,-1.50943210010881,-1.8812110748398
1730864996588,-4.6804,0.7402,-1.6149,0.2454,-7.5293,-6.436,0.05,-1.535,-1.3121,-0.21540536815379,-1.51053210010881,-1.8810110748398
1730864996588,-4.6206,0.8972,-1.5103,0.2484,-7.5293,-6.439,0.0506,-1.535,-1.3127,-0.21480536815379,-1.51053210010881,-1.8816110748398
1730864996588,-4.9645,0.9794,-1.7196,0.2412,-7.5227,-6.4276,0.0488,-1.5358,-1.312,-0.21660536815379,-1.51133210010881,-1.8809110748398
1730864996589,-4.8449,0.8523,-1.6822,0.2454,-7.5317,-6.436,0.05,-1.5355,-1.3121,-0.21540536815379,-1.51103210010881,-1.8810110748398
1730864996589,-4.8599,0.8074,-1.6224,0.2526,-7.5263,-6.4294,0.0515,-1.5344,-1.3107,-0.21390536815379,-1.50993210010881,-1.8796110748398
1730864996589,-4.8973,0.8074,-1.6673,0.2418,-7.5251,-6.427,0.0493,-1.5341,-1.3103,-0.21610536815379,-1.50963210010881,-1.8792110748398
1730864996589,-4.7776,0.8299,-1.6748,0.2496,-7.5311,-6.4246,0.0509,-1.5354,-1.3098,-0.21450536815379,-1.51093210010881,-1.8787110748398
1730864996590,-4.972,0.8224,-1.7196,0.252,-7.5299,-6.4402,0.0513,-1.5351,-1.3129,-0.21410536815379,-1.51063210010881,-1.8818110748398
1730864996590,-4.6281,0.8972,-1.5327,0.243,-7.5269,-6.4246,0.0495,-1.5345,-1.3098,-0.21590536815379,-1.51003210010881,-1.8787110748398
1730864996591,-4.7253,0.8149,-1.6149,0.2556,-7.5233,-6.4336,0.0521,-1.5338,-1.3116,-0.21330536815379,-1.50933210010881,-1.8805110748398
1730864996591,-4.7253,0.8747,-1.6374,0.2406,-7.5179,-6.4336,0.049,-1.5327,-1.3128,-0.21640536815379,-1.50823210010881,-1.8817110748398
1730864996591,-4.7477,0.8673,-1.5626,0.2377,-7.5161,-6.4497,0.0484,-1.5323,-1.3149,-0.21700536815379,-1.50783210010881,-1.8838110748398
1730864996591,-4.7328,0.7775,-1.5551,0.2418,-7.5245,-6.439,0.0493,-1.534,-1.3127,-0.21610536815379,-1.50953210010881,-1.8816110748398
1730864996592,-4.7627,0.9271,-1.5925,0.2335,-7.5335,-6.4443,0.0505,-1.5341,-1.312,-0.21490536815379,-1.50963210010881,-1.8809110748398
1730864996592,-4.5309,0.8673,-1.6299,0.2472,-7.5311,-6.4366,0.0504,-1.5354,-1.3122,-0.21500536815379,-1.51093210010881,-1.8811110748398
1730864996592,-4.7253,0.8374,-1.5701,0.2448,-7.5251,-6.4432,0.0499,-1.5341,-1.3135,-0.21550536815379,-1.50963210010881,-1.8824110748398
1730864996593,-4.5683,0.8448,-1.6224,0.2472,-7.5317,-6.4318,0.0513,-1.5352,-1.312,-0.21410536815379,-1.51073210010881,-1.8809110748398
1730864996593,-4.7253,0.8822,-1.6748,0.243,-7.5251,-6.436,0.0495,-1.5341,-1.3121,-0.21590536815379,-1.50963210010881,-1.8810110748398
1730864996593,-4.7627,0.8747,-1.757,0.2395,-7.5275,-6.4378,0.0488,-1.5346,-1.3125,-0.21660536815379,-1.51013210010881,-1.8814110748398
1730864996594,-4.8374,0.8224,-1.6,0.2442,-7.5305,-6.4312,0.0483,-1.5324,-1.3105,-0.21710536815379,-1.50793210010881,-1.8794110748398
1730864996594,-4.6057,0.785,-1.5776,0.2424,-7.5191,-6.4306,0.0494,-1.5329,-1.311,-0.21600536815379,-1.50843210010881,-1.8799110748398
1730864996594,-4.643,0.8448,-1.6,0.252,-7.5305,-6.4443,0.0513,-1.5352,-1.3138,-0.21410536815379,-1.51073210010881,-1.8827110748398
1730864996595,-4.5234,0.7775,-1.5103,0.2484,-7.5203,-6.436,0.0506,-1.5332,-1.3121,-0.21480536815379,-1.50873210010881,-1.8810110748398
1730864996595,-4.6057,0.7551,-1.6448,0.2466,-7.5317,-6.4408,0.0502,-1.5355,-1.3131,-0.21520536815379,-1.51103210010881,-1.8820110748398
1730864996595,-4.5533,0.8448,-1.5701,0.2514,-7.5305,-6.4336,0.0512,-1.5352,-1.3116,-0.21420536815379,-1.51073210010881,-1.8805110748398
1730864996596,-4.673,0.8673,-1.585,0.2442,-7.5275,-6.4384,0.0498,-1.5346,-1.3126,-0.21560536815379,-1.51013210010881,-1.8815110748398
1730864996596,-4.6206,0.8523,-1.6374,0.2472,-7.5221,-6.4437,0.0504,-1.5335,-1.3137,-0.21500536815379,-1.50903210010881,-1.8826110748398
1730864996596,-4.7103,0.8224,-1.5776,0.2448,-7.5293,-6.4372,0.0499,-1.535,-1.3131,-0.21550536815379,-1.51053210010881,-1.8820110748398
1730864996597,-4.658,0.8,-1.5551,0.249,-7.5299,-6.4348,0.0507,-1.5351,-1.3118,-0.21470536815379,-1.51063210010881,-1.8807110748398
1730864996597,-4.7926,0.9196,-1.6822,0.252,-7.5203,-6.4437,0.0513,-1.5332,-1.3137,-0.21410536815379,-1.50873210010881,-1.8826110748398
1730864996597,-4.8374,0.9794,-1.5252,0.2466,-7.5245,-6.436,0.05,-1.5344,-1.3106,-0.21540536815379,-1.50993210010881,-1.8795110748398
1730864996597,-4.6057,0.7177,-1.6075,0.2496,-7.5221,-6.439,0.0509,-1.5335,-1.3127,-0.21450536815379,-1.50903210010881,-1.8816110748398
1730864996598,-4.6879,0.7925,-1.6075,0.2448,-7.5329,-6.433,0.0499,-1.5357,-1.3115,-0.21550536815379,-1.51123210010881,-1.8804110748398
1730864996598,-4.7402,0.8822,-1.5402,0.246,-7.5305,-6.4414,0.0485,-1.5345,-1.3123,-0.21690536815379,-1.51003210010881,-1.8812110748398
1730864996598,-4.6281,0.8074,-1.585,0.2562,-7.5335,-6.4402,0.0522,-1.5358,-1.3129,-0.21320536815379,-1.51133210010881,-1.8818110748398
1730864996599,-4.6804,0.8,-1.5402,0.2514,-7.5251,-6.4467,0.0512,-1.5341,-1.3143,-0.21420536815379,-1.50963210010881,-1.8832110748398
1730864996599,-4.8524,0.957,-1.7047,0.2341,-7.5299,-6.4348,0.0517,-1.5344,-1.3121,-0.21370536815379,-1.50993210010881,-1.8810110748398
1730864996599,-4.7926,0.8673,-1.5551,0.2514,-7.5353,-6.4318,0.0512,-1.5362,-1.3112,-0.21420536815379,-1.51173210010881,-1.8801110748398
1730864996600,-4.8225,0.8822,-1.6673,0.2442,-7.5305,-6.4378,0.0498,-1.5352,-1.3125,-0.21560536815379,-1.51073210010881,-1.8814110748398
1730864996600,-4.8075,0.8,-1.6598,0.243,-7.5239,-6.4294,0.0495,-1.5339,-1.3107,-0.21590536815379,-1.50943210010881,-1.8796110748398
1730864996600,-4.8374,0.8523,-1.6075,0.2448,-7.5263,-6.4426,0.0499,-1.5344,-1.3134,-0.21550536815379,-1.50993210010881,-1.8823110748398
1730864996601,-4.8973,0.8374,-1.5925,0.2448,-7.5191,-6.4348,0.0499,-1.5329,-1.3118,-0.21550536815379,-1.50843210010881,-1.8807110748398
1730864996601,-4.7402,0.7402,-1.6822,0.2401,-7.5323,-6.436,0.0489,-1.5356,-1.3121,-0.21650536815379,-1.51113210010881,-1.8810110748398
1730864996601,-4.6356,0.7701,-1.5701,0.2436,-7.5221,-6.4372,0.0496,-1.5335,-1.3123,-0.21580536815379,-1.50903210010881,-1.8812110748398
1730864996602,-4.673,0.8897,-1.5476,0.2424,-7.5233,-6.4234,0.0494,-1.5338,-1.3117,-0.21600536815379,-1.50933210010881,-1.8806110748398
1730864996602,-4.7702,0.7626,-1.6673,0.2496,-7.5269,-6.4312,0.0509,-1.5345,-1.3111,-0.21450536815379,-1.51003210010881,-1.8800110748398
1730864996602,-4.7178,0.8299,-1.5776,0.243,-7.5257,-6.4258,0.0495,-1.5343,-1.31,-0.21590536815379,-1.50983210010881,-1.8789110748398
1730864996602,-4.8823,0.7626,-1.7271,0.2478,-7.5299,-6.427,0.0473,-1.5347,-1.3106,-0.21810536815379,-1.51023210010881,-1.8795110748398
1730864996603,-4.7402,0.6654,-1.6748,0.2478,-7.5275,-6.43,0.0505,-1.5346,-1.3109,-0.21490536815379,-1.51013210010881,-1.8798110748398
1730864996603,-4.6281,0.9121,-1.6299,0.2484,-7.5215,-6.4384,0.0506,-1.5334,-1.3126,-0.21480536815379,-1.50893210010881,-1.8815110748398
1730864996603,-4.7851,0.8598,-1.757,0.2406,-7.5191,-6.4342,0.049,-1.5327,-1.3098,-0.21640536815379,-1.50823210010881,-1.8787110748398
1730864996604,-4.4262,0.7775,-1.7047,0.2478,-7.5155,-6.4348,0.0505,-1.5322,-1.3118,-0.21490536815379,-1.50773210010881,-1.8807110748398
1730864996604,-4.8898,0.9121,-1.5925,0.246,-7.5227,-6.4515,0.0501,-1.5336,-1.3153,-0.21530536815379,-1.50913210010881,-1.8842110748398
1730864996623,-4.8973,0.8972,-1.6149,0.2323,-7.5077,-6.4455,0.0473,-1.5306,-1.314,-0.21810536815379,-1.50613210010881,-1.8829110748398
1730864996628,-4.972,0.7701,-1.6374,0.2353,-7.5041,-6.4545,0.0488,-1.5312,-1.3117,-0.21660536815379,-1.50673210010881,-1.8806110748398
1730864996647,-4.6356,0.6878,-1.6075,0.2317,-7.5071,-6.4503,0.0472,-1.5305,-1.315,-0.21820536815379,-1.50603210010881,-1.8839110748398
1730864996667,-4.83,0.942,-1.5402,0.2377,-7.5215,-6.4396,0.0484,-1.5334,-1.3128,-0.21700536815379,-1.50893210010881,-1.8817110748398
1730864996686,-4.673,0.7476,-1.6374,0.2418,-7.5095,-6.4396,0.0498,-1.5307,-1.3121,-0.21560536815379,-1.50623210010881,-1.8810110748398
1730864996707,-4.6505,0.7701,-1.585,0.2436,-7.5179,-6.4491,0.0496,-1.5327,-1.3148,-0.21580536815379,-1.50823210010881,-1.8837110748398
1730864996727,-4.815,0.9196,-1.4953,0.2359,-7.5215,-6.4437,0.048,-1.5334,-1.3137,-0.21740536815379,-1.50893210010881,-1.8826110748398
1730864996747,-4.7851,0.8448,-1.6673,0.2233,-7.5149,-6.4294,0.0477,-1.5321,-1.3107,-0.21770536815379,-1.50763210010881,-1.8796110748398
1730864996767,-4.658,0.8074,-1.6673,0.2401,-7.5197,-6.4455,0.0489,-1.533,-1.314,-0.21650536815379,-1.50853210010881,-1.8829110748398
1730864996787,-4.9122,0.9196,-1.6448,0.2383,-7.5143,-6.4414,0.0485,-1.5319,-1.3132,-0.21690536815379,-1.50743210010881,-1.8821110748398
1730864996806,-4.7103,0.8747,-1.6374,0.2395,-7.5209,-6.4515,0.0488,-1.5333,-1.3153,-0.21660536815379,-1.50883210010881,-1.8842110748398
1730864996825,-4.8374,0.8822,-1.5925,0.2371,-7.5143,-6.4396,0.0483,-1.5319,-1.3128,-0.21710536815379,-1.50743210010881,-1.8817110748398
1730864996845,-4.8674,0.9495,-1.5177,0.2269,-7.5149,-6.4378,0.0462,-1.5321,-1.3144,-0.21920536815379,-1.50763210010881,-1.8833110748398
1730864996866,-4.4935,0.8224,-1.6673,0.2401,-7.5131,-6.4408,0.0489,-1.5317,-1.3131,-0.21650536815379,-1.50723210010881,-1.8820110748398
1730864996885,-4.5982,0.8299,-1.5177,0.2377,-7.5203,-6.4366,0.0484,-1.5332,-1.3122,-0.21700536815379,-1.50873210010881,-1.8811110748398
1730864996906,-4.7253,-1.0018,-1.4804,0.2335,-7.5287,-6.4539,0.05,-1.534,-1.3148,-0.21540536815379,-1.50953210010881,-1.8837110748398
1730864996926,-4.815,0.7626,-1.6598,0.2448,-7.5149,-6.4545,0.0499,-1.5321,-1.3159,-0.21550536815379,-1.50763210010881,-1.8848110748398
1730864996946,-4.7702,0.8523,-1.5028,0.2406,-7.5299,-6.4461,0.049,-1.5351,-1.3142,-0.21640536815379,-1.51063210010881,-1.8831110748398
1730864996966,-4.6356,0.8374,-1.4878,0.2323,-7.5293,-6.4545,0.0483,-1.534,-1.3159,-0.21710536815379,-1.50953210010881,-1.8848110748398
1730864996986,-4.7103,0.8,-1.6075,0.2412,-7.5119,-6.4461,0.0491,-1.5314,-1.3142,-0.21630536815379,-1.50693210010881,-1.8831110748398
1730864997006,-4.673,0.8897,-1.5551,0.2412,-7.5167,-6.436,0.0491,-1.5324,-1.3121,-0.21630536815379,-1.50793210010881,-1.8810110748398
1730864997026,-4.7253,0.9121,-1.6299,0.2281,-7.5059,-6.433,0.0458,-1.5322,-1.3121,-0.21960536815379,-1.50773210010881,-1.8810110748398
1730864997046,-4.815,0.8747,-1.6598,0.2436,-7.5155,-6.4414,0.0496,-1.5322,-1.3132,-0.21580536815379,-1.50773210010881,-1.8821110748398
1730864997066,-4.83,0.8448,-1.6822,0.2418,-7.5221,-6.4455,0.0493,-1.5335,-1.314,-0.21610536815379,-1.50903210010881,-1.8829110748398
1730864997086,-4.8599,0.8972,-1.5626,0.2323,-7.5167,-6.4485,0.0473,-1.5324,-1.3146,-0.21810536815379,-1.50793210010881,-1.8835110748398
1730864997106,-4.8001,0.9046,-1.6598,0.2341,-7.5155,-6.4509,0.0477,-1.5322,-1.3151,-0.21770536815379,-1.50773210010881,-1.8840110748398
1730864997126,-4.9496,0.8523,-1.6598,0.2341,-7.5155,-6.4288,0.0477,-1.5322,-1.3106,-0.21770536815379,-1.50773210010881,-1.8795110748398
1730864997145,-4.7477,0.8523,-1.6149,0.2371,-7.5155,-6.4455,0.0483,-1.5322,-1.314,-0.21710536815379,-1.50773210010881,-1.8829110748398
1730864997165,-4.6655,0.8673,-1.6897,0.2383,-7.5161,-6.4503,0.0485,-1.5323,-1.315,-0.21690536815379,-1.50783210010881,-1.8839110748398
1730864997184,-4.6954,0.9196,-1.585,0.2377,-7.5203,-6.4449,0.0484,-1.5332,-1.3126,-0.21700536815379,-1.50873210010881,-1.8815110748398
1730864997205,-4.8374,0.8972,-1.5701,0.2377,-7.5173,-6.4443,0.0484,-1.5325,-1.3138,-0.21700536815379,-1.50803210010881,-1.8827110748398
1730864997225,-4.6954,0.8299,-1.6299,0.2448,-7.5161,-6.4455,0.0499,-1.5323,-1.314,-0.21550536815379,-1.50783210010881,-1.8829110748398
1730864997245,-4.6879,0.8224,-1.6149,0.2371,-7.5203,-6.4396,0.0474,-1.536,-1.3151,-0.21800536815379,-1.51153210010881,-1.8840110748398
1730864997265,-4.8075,0.8822,-1.7196,0.2293,-7.5113,-6.4509,0.0467,-1.5313,-1.3151,-0.21870536815379,-1.50683210010881,-1.8840110748398
1730864997285,-4.8225,0.9046,-1.6,0.2496,-7.5113,-6.4437,0.0509,-1.5313,-1.3137,-0.21450536815379,-1.50683210010881,-1.8826110748398
1730864997305,-4.7178,0.9196,-1.5476,0.2442,-7.5179,-6.4432,0.0488,-1.5333,-1.3159,-0.21660536815379,-1.50883210010881,-1.8848110748398
1730864997325,-5.0318,0.9346,-1.7495,0.2389,-7.5185,-6.4467,0.0487,-1.5328,-1.3143,-0.21670536815379,-1.50833210010881,-1.8832110748398
1730864997344,-4.8674,0.9196,-1.6598,0.2371,-7.5239,-6.4509,0.0483,-1.5339,-1.3151,-0.21710536815379,-1.50943210010881,-1.8840110748398
1730864997365,-4.83,0.8374,-1.742,0.2335,-7.5143,-6.4437,0.0487,-1.5311,-1.3144,-0.21670536815379,-1.50663210010881,-1.8833110748398
1730864997384,-4.8001,0.8897,-1.6822,0.2305,-7.5137,-6.4515,0.0469,-1.5318,-1.3153,-0.21850536815379,-1.50733210010881,-1.8842110748398
1730864997405,-4.7776,0.8448,-1.6075,0.2347,-7.5245,-6.4581,0.0478,-1.534,-1.3166,-0.21760536815379,-1.50953210010881,-1.8855110748398
1730864997425,-4.8973,0.8972,-1.6374,0.2436,-7.5155,-6.4437,0.0471,-1.5322,-1.3137,-0.21830536815379,-1.50773210010881,-1.8826110748398
1730864997444,-4.7776,0.9121,-1.7271,0.2329,-7.5209,-6.4408,0.0474,-1.5333,-1.3131,-0.21800536815379,-1.50883210010881,-1.8820110748398
1730864997465,-4.8823,0.8448,-1.742,0.2383,-7.5155,-6.4443,0.0485,-1.5322,-1.3138,-0.21690536815379,-1.50773210010881,-1.8827110748398
1730864997485,-4.673,0.8523,-1.4804,0.2335,-7.5191,-6.4384,0.0476,-1.5329,-1.3126,-0.21780536815379,-1.50843210010881,-1.8815110748398
1730864997504,-4.7253,0.9121,-1.5028,0.2311,-7.5155,-6.4384,0.0471,-1.5322,-1.3126,-0.21830536815379,-1.50773210010881,-1.8815110748398
1730864997524,-4.815,0.8074,-1.772,0.2383,-7.5155,-6.4533,0.0485,-1.5322,-1.3156,-0.21690536815379,-1.50773210010881,-1.8845110748398
1730864997543,-4.8075,0.8374,-1.5701,0.2353,-7.5179,-6.4449,0.0479,-1.5327,-1.3139,-0.21750536815379,-1.50823210010881,-1.8828110748398
1730864997564,-4.486,0.8149,-1.5402,0.2359,-7.5203,-6.4396,0.048,-1.5332,-1.3128,-0.21740536815379,-1.50873210010881,-1.8817110748398
1730864997584,-4.7253,0.8,-1.6673,0.2424,-7.5173,-6.4515,0.0476,-1.5317,-1.3166,-0.21780536815379,-1.50723210010881,-1.8855110748398
1730864997604,-4.8524,0.8747,-1.5476,0.2353,-7.5077,-6.4479,0.0479,-1.5306,-1.3145,-0.21750536815379,-1.50613210010881,-1.8834110748398
1730864997624,-4.8001,0.8224,-1.6822,0.2406,-7.5131,-6.433,0.049,-1.5317,-1.3115,-0.21640536815379,-1.50723210010881,-1.8804110748398
1730864997644,-4.6879,0.8299,-1.7196,0.2377,-7.5203,-6.4479,0.0482,-1.5336,-1.3156,-0.21720536815379,-1.50913210010881,-1.8845110748398
1730864997664,-4.6879,0.8673,-1.7346,0.2347,-7.5215,-6.4497,0.0478,-1.5334,-1.3149,-0.21760536815379,-1.50893210010881,-1.8838110748398
1730864997684,-4.7477,0.7775,-1.5701,0.2424,-7.5119,-6.4408,0.0494,-1.5314,-1.3131,-0.21600536815379,-1.50693210010881,-1.8820110748398
1730864997704,-4.658,0.8074,-1.6149,0.2335,-7.5131,-6.4551,0.0465,-1.5314,-1.3137,-0.21890536815379,-1.50693210010881,-1.8826110748398
1730864997724,-4.7029,0.8822,-1.5776,0.2395,-7.5191,-6.4479,0.0488,-1.5329,-1.3145,-0.21660536815379,-1.50843210010881,-1.8834110748398
1730864997744,-4.7178,0.8,-1.7645,0.2323,-7.5179,-6.4515,0.0473,-1.5327,-1.3153,-0.21810536815379,-1.50823210010881,-1.8842110748398
1730864997764,-4.673,0.8299,-1.585,0.2401,-7.5161,-6.4396,0.0493,-1.5323,-1.3128,-0.21610536815379,-1.50783210010881,-1.8817110748398
1730864997783,-4.7627,0.8747,-1.6075,0.2305,-7.5113,-6.4521,0.0469,-1.5313,-1.3154,-0.21850536815379,-1.50683210010881,-1.8843110748398
1730864997804,-4.6356,0.8074,-1.5402,0.2305,-7.5113,-6.4485,0.0469,-1.5313,-1.3146,-0.21850536815379,-1.50683210010881,-1.8835110748398
1730864997824,-4.5982,0.9121,-1.5925,0.2418,-7.5167,-6.4443,0.0493,-1.5324,-1.3138,-0.21610536815379,-1.50793210010881,-1.8827110748398
1730864997843,-4.8599,0.957,-1.6224,0.2365,-7.5221,-6.4432,0.0482,-1.5335,-1.3135,-0.21720536815379,-1.50903210010881,-1.8824110748398
1730864997863,-4.815,0.8972,-1.7121,0.2371,-7.5197,-6.4479,0.0483,-1.533,-1.3145,-0.21710536815379,-1.50853210010881,-1.8834110748398
1730864997883,-4.643,0.8299,-1.5626,0.2341,-7.5239,-6.4485,0.0477,-1.5339,-1.3146,-0.21770536815379,-1.50943210010881,-1.8835110748398
1730864997903,-4.6206,0.8299,-1.4953,0.2323,-7.5101,-6.4473,0.0473,-1.5311,-1.3144,-0.21810536815379,-1.50663210010881,-1.8833110748398
1730864997922,-4.6206,0.9121,-1.5252,0.2454,-7.5161,-6.4467,0.0498,-1.5317,-1.3145,-0.21560536815379,-1.50723210010881,-1.8834110748398
1730864997943,-4.7328,0.8673,-1.6448,0.2287,-7.5179,-6.442,0.0466,-1.5327,-1.3133,-0.21880536815379,-1.50823210010881,-1.8822110748398
1730864997962,-4.6879,0.8897,-1.5626,0.2347,-7.5233,-6.4402,0.0478,-1.5338,-1.3129,-0.21760536815379,-1.50933210010881,-1.8818110748398
1730864997983,-4.83,0.8374,-1.5327,0.2377,-7.5107,-6.439,0.0495,-1.5327,-1.3155,-0.21590536815379,-1.50823210010881,-1.8844110748398
1730864998003,-4.6655,0.8149,-1.5476,0.2353,-7.5173,-6.4491,0.0479,-1.5325,-1.3148,-0.21750536815379,-1.50803210010881,-1.8837110748398
1730864998023,-4.5832,0.8,-1.6224,0.2287,-7.5131,-6.4437,0.0466,-1.5317,-1.3137,-0.21880536815379,-1.50723210010881,-1.8826110748398
1730864998043,-4.5458,0.7626,-1.6075,0.2347,-7.5119,-6.4402,0.0484,-1.5329,-1.3143,-0.21700536815379,-1.50843210010881,-1.8832110748398
1730864998063,-4.8449,0.9346,-1.6075,0.2257,-7.5185,-6.4479,0.046,-1.5328,-1.3145,-0.21940536815379,-1.50833210010881,-1.8834110748398
1730864998082,-4.9645,0.9271,-1.7121,0.2406,-7.5137,-6.4539,0.049,-1.5318,-1.3157,-0.21640536815379,-1.50733210010881,-1.8846110748398
1730864998102,-4.8599,0.9121,-1.6,0.2293,-7.5155,-6.4461,0.048,-1.5322,-1.3142,-0.21740536815379,-1.50773210010881,-1.8831110748398
1730864998123,-4.6655,0.8822,-1.5626,0.2389,-7.5149,-6.4461,0.0487,-1.5321,-1.3142,-0.21670536815379,-1.50763210010881,-1.8831110748398
1730864998143,-4.6206,0.8074,-1.742,0.2436,-7.5185,-6.4497,0.0496,-1.5328,-1.3149,-0.21580536815379,-1.50833210010881,-1.8838110748398
1730864998163,-4.7926,0.9346,-1.7047,0.2395,-7.5197,-6.4581,0.0488,-1.533,-1.3166,-0.21660536815379,-1.50853210010881,-1.8855110748398
1730864998183,-4.7776,0.8149,-1.6448,0.2305,-7.5083,-6.4479,0.0469,-1.5307,-1.3145,-0.21850536815379,-1.50623210010881,-1.8834110748398
1730864998202,-4.7477,0.8,-1.585,0.2275,-7.5137,-6.4455,0.0463,-1.5318,-1.2828,-0.21910536815379,-1.50733210010881,-1.8517110748398
1730864998222,-4.8898,0.8448,-1.6299,0.2401,-7.5137,-6.4521,0.0489,-1.5318,-1.3154,-0.21650536815379,-1.50733210010881,-1.8843110748398
1730864998242,-4.5907,0.785,-1.5551,0.2371,-7.5113,-6.4485,0.0483,-1.5313,-1.3146,-0.21710536815379,-1.50683210010881,-1.8835110748398
1730864998262,-4.6954,0.942,-1.6224,0.2257,-7.5143,-6.4443,0.0484,-1.5324,-1.3144,-0.21700536815379,-1.50793210010881,-1.8833110748398
1730864998282,-4.6655,0.8224,-1.6374,0.2389,-7.5167,-6.4432,0.0487,-1.5324,-1.3135,-0.21670536815379,-1.50793210010881,-1.8824110748398
1730864998302,-4.7328,0.942,-1.6972,0.2436,-7.5131,-6.4563,0.0496,-1.5317,-1.3162,-0.21580536815379,-1.50723210010881,-1.8851110748398
1730864998322,-4.9122,0.9121,-1.6972,0.2359,-7.5101,-6.4551,0.0493,-1.5321,-1.314,-0.21610536815379,-1.50763210010881,-1.8829110748398
1730864998342,-4.83,0.8972,-1.6822,0.2305,-7.5173,-6.4491,0.0469,-1.5325,-1.3148,-0.21850536815379,-1.50803210010881,-1.8837110748398
1730864998362,-4.673,0.8074,-1.6149,0.2299,-7.5173,-6.4378,0.0468,-1.5325,-1.3125,-0.21860536815379,-1.50803210010881,-1.8814110748398
1730864998381,-4.7178,0.8448,-1.5626,0.2377,-7.5089,-6.4342,0.0472,-1.5334,-1.3125,-0.21820536815379,-1.50893210010881,-1.8814110748398
1730864998402,-4.673,0.8897,-1.5476,0.2299,-7.5161,-6.4593,0.0468,-1.5323,-1.3168,-0.21860536815379,-1.50783210010881,-1.8857110748398
1730864998422,-4.6131,0.8673,-1.6299,0.2424,-7.5047,-6.4557,0.0494,-1.53,-1.3161,-0.21600536815379,-1.50553210010881,-1.8850110748398
1730864998442,-4.673,0.8224,-1.4878,0.2359,-7.5251,-6.4473,0.0469,-1.5341,-1.3144,-0.21850536815379,-1.50963210010881,-1.8833110748398
1730864998462,-4.6879,0.7476,-1.6149,0.2359,-7.5239,-6.4491,0.048,-1.5339,-1.3148,-0.21740536815379,-1.50943210010881,-1.8837110748398
1730864998482,-4.6505,0.7775,-1.585,0.2365,-7.5119,-6.4366,0.0482,-1.5314,-1.3122,-0.21720536815379,-1.50693210010881,-1.8811110748398
1730864998502,-4.6954,0.9495,-1.585,0.2371,-7.5239,-6.4426,0.0483,-1.5339,-1.3134,-0.21710536815379,-1.50943210010881,-1.8823110748398
1730864998522,-4.7627,0.9196,-1.7196,0.2329,-7.5155,-6.4449,0.0474,-1.5322,-1.3139,-0.21800536815379,-1.50773210010881,-1.8828110748398
1730864998541,-4.8225,0.9196,-1.6972,0.2365,-7.5113,-6.4491,0.0482,-1.5313,-1.3148,-0.21720536815379,-1.50683210010881,-1.8837110748398
1730864998561,-4.6505,0.7327,-1.585,0.2287,-7.5161,-6.4449,0.0466,-1.5323,-1.3139,-0.21880536815379,-1.50783210010881,-1.8828110748398
1730864998580,-4.5608,0.8299,-1.4729,0.2371,-7.5119,-6.4408,0.0483,-1.5314,-1.3131,-0.21710536815379,-1.50693210010881,-1.8820110748398
1730864998601,-4.7402,0.8523,-1.6598,0.2347,-7.5323,-6.4479,0.0469,-1.5341,-1.3109,-0.21850536815379,-1.50963210010881,-1.8798110748398
1730864998621,-4.7178,0.8448,-1.6598,0.2401,-7.5113,-6.442,0.0489,-1.5313,-1.3133,-0.21650536815379,-1.50683210010881,-1.8822110748398
1730864998641,-4.7103,0.8822,-1.5925,0.2395,-7.5167,-6.4414,0.0488,-1.5324,-1.3132,-0.21660536815379,-1.50793210010881,-1.8821110748398
1730864998661,-4.5907,0.7925,-1.6149,0.2383,-7.5125,-6.4509,0.0482,-1.5323,-1.314,-0.21720536815379,-1.50783210010881,-1.8829110748398
1730864998681,-4.7926,0.9196,-1.585,0.2436,-7.5257,-6.4455,0.0496,-1.5343,-1.314,-0.21580536815379,-1.50983210010881,-1.8829110748398
1730864998701,-4.6879,0.7327,-1.6075,0.2401,-7.5179,-6.4491,0.0489,-1.5327,-1.3148,-0.21650536815379,-1.50823210010881,-1.8837110748398
1730864998721,-4.7253,0.8972,-1.5476,0.2305,-7.5131,-6.4479,0.0494,-1.533,-1.3153,-0.21600536815379,-1.50853210010881,-1.8842110748398
1730864998740,-4.6505,0.8,-1.5476,0.2389,-7.5173,-6.4485,0.0487,-1.5325,-1.3146,-0.21670536815379,-1.50803210010881,-1.8835110748398
1730864998761,-4.7253,0.8299,-1.6224,0.2383,-7.5155,-6.4569,0.0485,-1.5322,-1.3164,-0.21690536815379,-1.50773210010881,-1.8853110748398
1730864998781,-4.5758,0.7775,-1.5626,0.2323,-7.5209,-6.4521,0.0484,-1.5333,-1.3154,-0.21700536815379,-1.50883210010881,-1.8843110748398
1730864998801,-4.7029,0.8822,-1.6598,0.2335,-7.5101,-6.442,0.0476,-1.5311,-1.3133,-0.21780536815379,-1.50663210010881,-1.8822110748398
1730864998820,-4.5907,0.7701,-1.6374,0.2317,-7.5155,-6.4485,0.0472,-1.5322,-1.3146,-0.21820536815379,-1.50773210010881,-1.8835110748398
1730864998841,-4.6804,0.8224,-1.5701,0.2305,-7.5113,-6.4408,0.0469,-1.5313,-1.3131,-0.21850536815379,-1.50683210010881,-1.8820110748398
1730864998860,-4.8001,0.8374,-1.6224,0.2424,-7.5185,-6.4545,0.0494,-1.5328,-1.3159,-0.21600536815379,-1.50833210010881,-1.8848110748398
1730864998879,-4.5758,0.7476,-1.5626,0.2341,-7.5107,-6.4443,0.0477,-1.5312,-1.3138,-0.21770536815379,-1.50673210010881,-1.8827110748398
1730864998900,-4.658,0.8523,-1.5476,0.2335,-7.5131,-6.4467,0.0476,-1.5317,-1.3143,-0.21780536815379,-1.50723210010881,-1.8832110748398
1730864998920,-4.7253,0.7626,-1.6,0.2466,-7.5101,-6.4569,0.0502,-1.5311,-1.3164,-0.21520536815379,-1.50663210010881,-1.8853110748398
1730864998940,-4.8075,0.7925,-1.6374,0.2371,-7.5167,-6.4599,0.0471,-1.5339,-1.315,-0.21830536815379,-1.50943210010881,-1.8839110748398
1730864998960,-4.7103,0.8897,-1.6,0.2365,-7.5203,-6.4491,0.0482,-1.5332,-1.3148,-0.21720536815379,-1.50873210010881,-1.8837110748398
1730864998980,-4.6356,0.8149,-1.6299,0.2359,-7.5113,-6.4527,0.048,-1.5313,-1.3155,-0.21740536815379,-1.50683210010881,-1.8844110748398
1730864999000,-4.643,0.8149,-1.5925,0.2406,-7.5089,-6.4509,0.0487,-1.5323,-1.3129,-0.21670536815379,-1.50783210010881,-1.8818110748398
1730864999020,-4.6131,0.7925,-1.5402,0.2412,-7.5197,-6.4426,0.0491,-1.533,-1.3134,-0.21630536815379,-1.50853210010881,-1.8823110748398
1730864999040,-4.8823,0.8149,-1.6598,0.246,-7.5119,-6.4515,0.0501,-1.5314,-1.3153,-0.21530536815379,-1.50693210010881,-1.8842110748398
1730864999060,-4.8524,-1.0392,-1.6299,0.2377,-7.5095,-6.4449,0.0474,-1.5317,-1.3134,-0.21800536815379,-1.50723210010881,-1.8823110748398
1730864999079,-4.8973,0.9271,-1.6374,0.2365,-7.5131,-6.4461,0.0482,-1.5317,-1.3142,-0.21720536815379,-1.50723210010881,-1.8831110748398
1730864999100,-4.8748,0.7626,-1.6149,0.2412,-7.5215,-6.4461,0.0491,-1.5334,-1.3142,-0.21630536815379,-1.50893210010881,-1.8831110748398
1730864999119,-4.673,0.8897,-1.5701,0.2383,-7.5173,-6.4443,0.0482,-1.5322,-1.3138,-0.21720536815379,-1.50773210010881,-1.8827110748398
1730864999139,-4.7328,0.8,-1.7271,0.2347,-7.5107,-6.4402,0.0478,-1.5312,-1.3129,-0.21760536815379,-1.50673210010881,-1.8818110748398
1730864999159,-4.6954,0.7626,-1.6523,0.2424,-7.5179,-6.4557,0.0494,-1.5327,-1.3161,-0.21600536815379,-1.50823210010881,-1.8850110748398
1730864999178,-4.7253,0.8673,-1.5177,0.2287,-7.5173,-6.4437,0.0466,-1.5325,-1.3137,-0.21880536815379,-1.50803210010881,-1.8826110748398
1730864999198,-4.7103,0.8822,-1.6149,0.2347,-7.5167,-6.4533,0.0478,-1.5324,-1.3156,-0.21760536815379,-1.50793210010881,-1.8845110748398
1730864999218,-4.7477,0.8224,-1.7196,0.2395,-7.5161,-6.4491,0.0488,-1.5323,-1.3148,-0.21660536815379,-1.50783210010881,-1.8837110748398
1730864999238,-4.7477,0.8,-1.4953,0.2353,-7.5161,-6.4384,0.0479,-1.5323,-1.3126,-0.21750536815379,-1.50783210010881,-1.8815110748398
1730864999259,-4.7702,0.785,-1.6075,0.2335,-7.5137,-6.4473,0.0476,-1.5318,-1.3144,-0.21780536815379,-1.50733210010881,-1.8833110748398
1730864999279,-4.8001,0.8523,-1.6374,0.2424,-7.5197,-6.4497,0.0483,-1.5346,-1.3121,-0.21710536815379,-1.51013210010881,-1.8810110748398
1730864999299,-4.6879,0.9346,-1.5626,0.2263,-7.5149,-6.4414,0.0461,-1.5321,-1.3132,-0.21930536815379,-1.50763210010881,-1.8821110748398
1730864999319,-5.0019,0.942,-1.7196,0.2395,-7.5173,-6.4432,0.0488,-1.5325,-1.3135,-0.21660536815379,-1.50803210010881,-1.8824110748398
1730864999338,-4.6954,0.9121,-1.7495,0.2371,-7.5191,-6.4443,0.049,-1.5307,-1.3137,-0.21640536815379,-1.50623210010881,-1.8826110748398
1730864999358,-4.7627,0.8747,-1.6149,0.246,-7.5149,-6.4414,0.0501,-1.5321,-1.3132,-0.21530536815379,-1.50763210010881,-1.8821110748398
1730864999378,-4.5907,0.8374,-1.6149,0.2329,-7.5065,-6.4426,0.0474,-1.5303,-1.3134,-0.21800536815379,-1.50583210010881,-1.8823110748398
1730864999399,-4.6879,0.8,-1.6,0.2395,-7.5311,-6.4479,0.0494,-1.5334,-1.3162,-0.21600536815379,-1.50893210010881,-1.8851110748398
1730864999419,-4.815,0.8299,-1.5776,0.2335,-7.5131,-6.4521,0.0476,-1.5317,-1.3154,-0.21780536815379,-1.50723210010881,-1.8843110748398
1730864999439,-4.8374,0.7925,-1.5402,0.2347,-7.5113,-6.4527,0.0478,-1.5313,-1.3155,-0.21760536815379,-1.50683210010881,-1.8844110748398
1730864999459,-4.6057,0.8523,-1.5252,0.2311,-7.5209,-6.4515,0.0479,-1.5333,-1.3153,-0.21750536815379,-1.50883210010881,-1.8842110748398
1730864999479,-4.8001,0.8448,-1.5626,0.2263,-7.5167,-6.4521,0.0461,-1.5324,-1.3154,-0.21930536815379,-1.50793210010881,-1.8843110748398
1730864999498,-4.7851,0.7402,-1.6897,0.2442,-7.5167,-6.4527,0.0498,-1.5324,-1.3155,-0.21560536815379,-1.50793210010881,-1.8844110748398
1730864999518,-4.7402,0.9196,-1.6075,0.2329,-7.5317,-6.4587,0.0474,-1.5355,-1.3167,-0.21800536815379,-1.51103210010881,-1.8856110748398
1730864999538,-4.8898,0.942,-1.6897,0.2299,-7.5179,-6.4539,0.0468,-1.5327,-1.3157,-0.21860536815379,-1.50823210010881,-1.8846110748398
1730864999558,-4.8973,0.8149,-1.7271,0.2502,-7.5317,-6.4443,0.051,-1.5355,-1.3138,-0.21440536815379,-1.51103210010881,-1.8827110748398
1730864999578,-4.83,0.8299,-1.5177,0.2281,-7.5167,-6.4372,0.0465,-1.5324,-1.3123,-0.21890536815379,-1.50793210010881,-1.8812110748398
1730864999597,-4.9047,0.8523,-1.6149,0.2359,-7.5179,-6.4384,0.048,-1.5327,-1.3126,-0.21740536815379,-1.50823210010881,-1.8815110748398
1730864999618,-4.8898,0.7775,-1.6299,0.2532,-7.5311,-6.4503,0.0516,-1.5338,-1.3138,-0.21380536815379,-1.50933210010881,-1.8827110748398
1730864999638,-5.0393,0.9944,-1.5925,0.2293,-7.5191,-6.4372,0.0467,-1.5329,-1.3123,-0.21870536815379,-1.50843210010881,-1.8812110748398
1730864999658,-4.9122,0.8,-1.6224,0.2406,-7.5185,-6.4408,0.049,-1.5328,-1.3131,-0.21640536815379,-1.50833210010881,-1.8820110748398
1730864999678,-5.144,0.8822,-1.7346,0.246,-7.5131,-6.4402,0.0494,-1.5356,-1.3143,-0.21600536815379,-1.51113210010881,-1.8832110748398
1730864999698,-5.0169,0.8897,-1.5327,0.2281,-7.5161,-6.4372,0.0465,-1.5323,-1.3123,-0.21890536815379,-1.50783210010881,-1.8812110748398
1730864999718,-4.9047,0.8374,-1.6224,0.2424,-7.5197,-6.4294,0.0494,-1.533,-1.3107,-0.21600536815379,-1.50853210010881,-1.8796110748398
1730864999737,-4.8599,0.8448,-1.6,0.2395,-7.5299,-6.427,0.0487,-1.5355,-1.3112,-0.21670536815379,-1.51103210010881,-1.8801110748398
1730864999758,-4.6879,0.7028,-1.5626,0.2347,-7.5928,-6.4875,0.0478,-1.5479,-1.3226,-0.21760536815379,-1.52343210010881,-1.8915110748398
1730864999778,-5.0767,0.8149,-1.6598,0.2311,-7.494,-6.3964,0.0471,-1.5278,-1.304,-0.21830536815379,-1.50333210010881,-1.8729110748398
1730864999798,-4.83,0.8299,-1.5701,0.2371,-7.5329,-6.4545,0.0484,-1.5361,-1.3159,-0.21700536815379,-1.51163210010881,-1.8848110748398
1730864999818,-4.7776,0.8149,-1.772,0.2454,-7.5209,-6.4234,0.05,-1.5333,-1.3095,-0.21540536815379,-1.50883210010881,-1.8784110748398
1730864999837,-4.8075,-1.0243,-1.3906,0.2275,-7.5275,-6.4384,0.0463,-1.5346,-1.3126,-0.21910536815379,-1.51013210010881,-1.8815110748398
1730864999856,-4.7402,0.7327,-1.6523,0.2436,-7.5221,-6.4366,0.0496,-1.5335,-1.3122,-0.21580536815379,-1.50903210010881,-1.8811110748398
1730864999877,-4.7776,0.9346,-1.5551,0.2341,-7.5191,-6.4276,0.0477,-1.5329,-1.3104,-0.21770536815379,-1.50843210010881,-1.8793110748398
1730864999897,-4.8524,0.8374,-1.6598,0.2329,-7.5197,-6.4288,0.0474,-1.533,-1.3106,-0.21800536815379,-1.50853210010881,-1.8795110748398
1730864999917,-4.9346,0.942,-1.6822,0.2448,-7.5287,-6.4348,0.0499,-1.5349,-1.3118,-0.21550536815379,-1.51043210010881,-1.8807110748398
1730864999937,-4.7477,0.7701,-1.6897,0.2341,-7.5275,-6.4288,0.0477,-1.5346,-1.3106,-0.21770536815379,-1.51013210010881,-1.8795110748398
1730864999957,-4.987,0.8598,-1.6822,0.2389,-7.5239,-6.4336,0.0487,-1.5354,-1.3155,-0.21670536815379,-1.51093210010881,-1.8844110748398
1730864999977,-4.7552,0.8673,-1.5476,0.2329,-7.5251,-6.4437,0.0474,-1.5341,-1.3137,-0.21800536815379,-1.50963210010881,-1.8826110748398
1730864999997,-4.9272,0.7925,-1.6972,0.2418,-7.5305,-6.4306,0.0493,-1.5352,-1.311,-0.21610536815379,-1.51073210010881,-1.8799110748398
1730865000017,-4.8001,0.8972,-1.6075,0.2281,-7.5311,-6.4318,0.049,-1.5338,-1.3101,-0.21640536815379,-1.50933210010881,-1.8790110748398
1730865000037,-4.7627,0.8224,-1.6,0.2347,-7.5269,-6.4288,0.0478,-1.5345,-1.3106,-0.21760536815379,-1.51003210010881,-1.8795110748398
1730865000056,-4.8599,0.7925,-1.6224,0.2448,-7.5281,-6.4336,0.0499,-1.5347,-1.3116,-0.21550536815379,-1.51023210010881,-1.8805110748398
1730865000077,-5.1141,0.9121,-1.7121,0.2293,-7.5293,-6.442,0.0473,-1.5356,-1.3122,-0.21810536815379,-1.51113210010881,-1.8811110748398
1730865000097,-4.9645,0.7925,-1.6299,0.2347,-7.5209,-6.4276,0.0478,-1.5333,-1.3104,-0.21760536815379,-1.50883210010881,-1.8793110748398
1730865000117,-4.815,0.8747,-1.6,0.2353,-7.5203,-6.43,0.0479,-1.5332,-1.3109,-0.21750536815379,-1.50873210010881,-1.8798110748398
1730865000137,-4.8898,0.8523,-1.6598,0.2371,-7.5173,-6.424,0.0463,-1.534,-1.3096,-0.21910536815379,-1.50953210010881,-1.8785110748398
1730865000157,-4.7776,0.8299,-1.585,0.2365,-7.5317,-6.4324,0.0482,-1.5355,-1.3114,-0.21720536815379,-1.51103210010881,-1.8803110748398
1730865000176,-4.7178,0.7402,-1.6,0.2436,-7.5311,-6.4455,0.0496,-1.5354,-1.314,-0.21580536815379,-1.51093210010881,-1.8829110748398
1730865000196,-4.7851,0.9121,-1.6149,0.2299,-7.5311,-6.4402,0.0468,-1.5354,-1.3129,-0.21860536815379,-1.51093210010881,-1.8818110748398
1730865000216,-4.7253,0.942,-1.5776,0.2347,-7.5197,-6.4312,0.0478,-1.533,-1.3111,-0.21760536815379,-1.50853210010881,-1.8800110748398
1730865000236,-4.7627,0.8897,-1.5327,0.2466,-7.5269,-6.4437,0.0502,-1.5345,-1.3137,-0.21520536815379,-1.51003210010881,-1.8826110748398
1730865000256,-4.7627,0.8448,-1.5103,0.2281,-7.5275,-6.4336,0.0465,-1.5346,-1.3116,-0.21890536815379,-1.51013210010881,-1.8805110748398
1730865000276,-4.7402,0.9271,-1.6523,0.2383,-7.5287,-6.4252,0.0485,-1.5349,-1.3099,-0.21690536815379,-1.51043210010881,-1.8788110748398
1730865000296,-4.7328,0.8972,-1.5925,0.2341,-7.5305,-6.4204,0.0477,-1.5352,-1.3107,-0.21770536815379,-1.51073210010881,-1.8796110748398
1730865000316,-4.8823,0.8,-1.6299,0.2365,-7.5269,-6.4342,0.0482,-1.5345,-1.3117,-0.21720536815379,-1.51003210010881,-1.8806110748398
1730865000336,-4.6879,0.8299,-1.6075,0.2383,-7.5215,-6.436,0.0485,-1.5334,-1.3121,-0.21690536815379,-1.50893210010881,-1.8810110748398
1730865000356,-4.8374,0.8523,-1.6149,0.2371,-7.5335,-6.4282,0.0489,-1.5341,-1.3107,-0.21650536815379,-1.50963210010881,-1.8796110748398
1730865000376,-4.9421,0.9196,-1.6822,0.2377,-7.5257,-6.427,0.0484,-1.5343,-1.3103,-0.21700536815379,-1.50983210010881,-1.8792110748398
1730865000396,-4.7926,0.9196,-1.5626,0.2335,-7.5323,-6.4318,0.0476,-1.5356,-1.3112,-0.21780536815379,-1.51113210010881,-1.8801110748398
1730865000416,-5.0244,0.9121,-1.6374,0.2293,-7.5203,-6.442,0.049,-1.5324,-1.3103,-0.21640536815379,-1.50793210010881,-1.8792110748398
1730865000436,-4.7029,0.8598,-1.6299,0.2389,-7.5317,-6.4252,0.0487,-1.5355,-1.3099,-0.21670536815379,-1.51103210010881,-1.8788110748398
1730865000456,-4.7029,0.8448,-1.6374,0.2395,-7.5335,-6.4342,0.0488,-1.5358,-1.3117,-0.21660536815379,-1.51133210010881,-1.8806110748398
1730865000476,-4.7328,0.8374,-1.6075,0.2424,-7.5215,-6.4366,0.0495,-1.5347,-1.3123,-0.21590536815379,-1.51023210010881,-1.8812110748398
1730865000496,-4.8898,0.8523,-1.6374,0.2311,-7.5287,-6.4198,0.0471,-1.5349,-1.3088,-0.21830536815379,-1.51043210010881,-1.8777110748398
1730865000515,-4.6505,0.8448,-1.585,0.2341,-7.5239,-6.427,0.0477,-1.5339,-1.3103,-0.21770536815379,-1.50943210010881,-1.8792110748398
1730865000535,-4.8225,0.8224,-1.585,0.2496,-7.5311,-6.436,0.0509,-1.5354,-1.3121,-0.21450536815379,-1.51093210010881,-1.8810110748398
1730865000555,-4.6954,0.8374,-1.6299,0.2448,-7.5317,-6.4402,0.0499,-1.5355,-1.3129,-0.21550536815379,-1.51103210010881,-1.8818110748398
1730865000575,-4.6879,0.7177,-1.5177,0.2448,-7.5245,-6.4384,0.0499,-1.534,-1.3126,-0.21550536815379,-1.50953210010881,-1.8815110748398
1730865000595,-4.7328,0.785,-1.585,0.2395,-7.5257,-6.4306,0.0488,-1.5343,-1.311,-0.21660536815379,-1.50983210010881,-1.8799110748398
1730865000615,-4.815,0.8299,-1.5776,0.2293,-7.5203,-6.4414,0.0467,-1.5332,-1.3132,-0.21870536815379,-1.50873210010881,-1.8821110748398
1730865000634,-4.7029,0.8074,-1.6075,0.2347,-7.5251,-6.4342,0.0478,-1.5346,-1.3103,-0.21760536815379,-1.51013210010881,-1.8792110748398
1730865000655,-4.6804,0.8374,-1.6448,0.2359,-7.5353,-6.4228,0.048,-1.5362,-1.3094,-0.21740536815379,-1.51173210010881,-1.8783110748398
1730865000675,-4.673,0.8149,-1.6822,0.2418,-7.5311,-6.4228,0.0493,-1.5354,-1.3094,-0.21610536815379,-1.51093210010881,-1.8783110748398
1730865000694,-4.9122,0.8673,-1.6299,0.2365,-7.5287,-6.4294,0.0485,-1.5345,-1.3114,-0.21690536815379,-1.51003210010881,-1.8803110748398
1730865000715,-4.6804,0.8374,-1.6149,0.2365,-7.5317,-6.4366,0.0482,-1.5355,-1.3122,-0.21720536815379,-1.51103210010881,-1.8811110748398
1730865000735,-4.7328,0.7925,-1.5252,0.2275,-7.5281,-6.4216,0.0463,-1.5347,-1.3092,-0.21910536815379,-1.51023210010881,-1.8781110748398
1730865000755,-4.5832,0.7925,-1.4729,0.2424,-7.5203,-6.4264,0.0482,-1.5324,-1.3096,-0.21720536815379,-1.50793210010881,-1.8785110748398
1730865000775,-4.5384,0.8299,-1.5402,0.2359,-7.5245,-6.4384,0.048,-1.534,-1.3126,-0.21740536815379,-1.50953210010881,-1.8815110748398
1730865000795,-4.7029,0.8972,-1.6598,0.2418,-7.5287,-6.4342,0.0493,-1.5349,-1.3117,-0.21610536815379,-1.51043210010881,-1.8806110748398
1730865000815,-4.6505,0.9495,-1.6149,0.2323,-7.5317,-6.5898,0.0477,-1.5364,-1.3126,-0.21770536815379,-1.51193210010881,-1.8815110748398
1730865000835,-4.4262,0.8523,-1.5776,0.2341,-7.5275,-6.4426,0.0477,-1.5346,-1.3134,-0.21770536815379,-1.51013210010881,-1.8823110748398
1730865000854,-4.6655,0.7177,-1.6075,0.2442,-7.5353,-6.4432,0.0498,-1.5362,-1.3135,-0.21560536815379,-1.51173210010881,-1.8824110748398
1730865000873,-4.4935,0.8149,-1.5925,0.2383,-7.5311,-6.4372,0.0485,-1.5354,-1.3123,-0.21690536815379,-1.51093210010881,-1.8812110748398
1730865000893,-4.5533,0.9645,-1.6075,0.2341,-7.5215,-6.442,0.0477,-1.5334,-1.3133,-0.21770536815379,-1.50893210010881,-1.8822110748398
1730865000914,-4.6206,0.7925,-1.5626,0.2353,-7.5203,-6.4443,0.0479,-1.5332,-1.3138,-0.21750536815379,-1.50873210010881,-1.8827110748398
1730865000934,-4.8075,0.9121,-1.6523,0.2401,-7.5317,-6.4246,0.0489,-1.5355,-1.3098,-0.21650536815379,-1.51103210010881,-1.8787110748398
1730865000954,-4.9272,0.8897,-1.6748,0.2323,-7.5239,-6.4282,0.0473,-1.5339,-1.3105,-0.21810536815379,-1.50943210010881,-1.8794110748398
1730865000974,-4.9122,0.8673,-1.6523,0.2448,-7.5311,-6.439,0.0499,-1.5323,-1.3114,-0.21550536815379,-1.50783210010881,-1.8803110748398
1730865000993,-4.7851,0.8523,-1.5402,0.2251,-7.5263,-6.4324,0.0458,-1.5344,-1.3114,-0.21960536815379,-1.50993210010881,-1.8803110748398
1730865001014,-4.7402,0.8673,-1.7047,0.2389,-7.5251,-6.4282,0.0487,-1.5341,-1.3105,-0.21670536815379,-1.50963210010881,-1.8794110748398
1730865001034,-4.7402,0.8299,-1.5925,0.2383,-7.5311,-6.436,0.0499,-1.5352,-1.3125,-0.21550536815379,-1.51073210010881,-1.8814110748398
1730865001053,-4.6954,0.785,-1.5776,0.2395,-7.5275,-6.4396,0.0488,-1.5346,-1.3128,-0.21660536815379,-1.51013210010881,-1.8817110748398
1730865001074,-4.6206,0.7925,-1.5476,0.2353,-7.5311,-6.4324,0.0479,-1.5354,-1.3114,-0.21750536815379,-1.51093210010881,-1.8803110748398
1730865001094,-4.8001,0.8673,-1.6075,0.2478,-7.5347,-6.4426,0.0489,-1.5352,-1.3128,-0.21650536815379,-1.51073210010881,-1.8817110748398
1730865001113,-4.9945,0.942,-1.7271,0.2371,-7.5263,-6.4252,0.0483,-1.5344,-1.3099,-0.21710536815379,-1.50993210010881,-1.8788110748398
1730865001134,-4.9047,0.9271,-1.742,0.2448,-7.5233,-6.4258,0.0499,-1.5338,-1.31,-0.21550536815379,-1.50933210010881,-1.8789110748398
1730865001153,-4.8524,0.8747,-1.6897,0.2502,-7.5275,-6.4174,0.049,-1.5356,-1.3112,-0.21640536815379,-1.51113210010881,-1.8801110748398
1730865001173,-4.7702,0.8747,-1.5028,0.2341,-7.5245,-6.427,0.0477,-1.534,-1.3103,-0.21770536815379,-1.50953210010881,-1.8792110748398
1730865001192,-4.6655,0.8374,-1.4654,0.2424,-7.5203,-6.4354,0.0494,-1.5332,-1.312,-0.21600536815379,-1.50873210010881,-1.8809110748398
1730865001213,-4.83,0.8972,-1.585,0.2359,-7.5197,-6.4348,0.048,-1.533,-1.3118,-0.21740536815379,-1.50853210010881,-1.8807110748398
1730865001233,-4.7328,0.8074,-1.6,0.2347,-7.5185,-6.4354,0.0478,-1.5328,-1.312,-0.21760536815379,-1.50833210010881,-1.8809110748398
1730865001252,-4.7552,0.8673,-1.6448,0.2508,-7.5275,-6.4294,0.0511,-1.5346,-1.3107,-0.21430536815379,-1.51013210010881,-1.8796110748398
1730865001273,-4.8674,0.8598,-1.6,0.2323,-7.5311,-6.4324,0.0473,-1.5354,-1.3114,-0.21810536815379,-1.51093210010881,-1.8803110748398
1730865001293,-4.8225,0.8374,-1.5103,0.2323,-7.5131,-6.427,0.0473,-1.5317,-1.3103,-0.21810536815379,-1.50723210010881,-1.8792110748398
1730865001313,-4.7851,0.8149,-1.5925,0.2335,-7.5311,-6.4306,0.0476,-1.5354,-1.3135,-0.21780536815379,-1.51093210010881,-1.8824110748398
1730865001333,-4.7552,0.8224,-1.5476,0.2341,-7.5317,-6.4228,0.0477,-1.5355,-1.3094,-0.21770536815379,-1.51103210010881,-1.8783110748398
1730865001353,-4.9421,0.8972,-1.6748,0.2347,-7.5185,-6.439,0.0478,-1.5328,-1.3127,-0.21760536815379,-1.50833210010881,-1.8816110748398
1730865001373,-4.7477,0.8448,-1.6299,0.246,-7.5317,-6.442,0.0471,-1.5334,-1.3138,-0.21830536815379,-1.50893210010881,-1.8827110748398
1730865001393,-4.8374,0.8523,-1.5701,0.2371,-7.5317,-6.4318,0.0483,-1.5355,-1.3112,-0.21710536815379,-1.51103210010881,-1.8801110748398
1730865001413,-4.8823,0.8972,-1.6822,0.2341,-7.5167,-6.4282,0.0477,-1.5324,-1.3105,-0.21770536815379,-1.50793210010881,-1.8794110748398
1730865001433,-4.8973,0.8972,-1.7047,0.2454,-7.5239,-6.4312,0.0491,-1.5338,-1.3121,-0.21630536815379,-1.50933210010881,-1.8810110748398
1730865001453,-4.8075,0.9719,-1.5551,0.2406,-7.5329,-6.433,0.049,-1.5357,-1.3115,-0.21640536815379,-1.51123210010881,-1.8804110748398
1730865001473,-5.0244,0.9944,-1.6523,0.2353,-7.5341,-6.4342,0.0479,-1.536,-1.3117,-0.21750536815379,-1.51153210010881,-1.8806110748398
1730865001492,-4.673,0.9271,-1.585,0.2383,-7.5329,-6.4294,0.0487,-1.5345,-1.3142,-0.21670536815379,-1.51003210010881,-1.8831110748398
1730865001512,-4.8001,0.8897,-1.4729,0.2317,-7.5281,-6.4384,0.0472,-1.5347,-1.3126,-0.21820536815379,-1.51023210010881,-1.8815110748398
1730865001532,-4.6954,0.8,-1.6075,0.2347,-7.5197,-6.4252,0.0478,-1.533,-1.3099,-0.21760536815379,-1.50853210010881,-1.8788110748398
1730865001552,-4.7328,0.8448,-1.5701,0.2484,-7.5251,-6.4294,0.0491,-1.5341,-1.3107,-0.21630536815379,-1.50963210010881,-1.8796110748398
1730865001572,-4.7477,0.8822,-1.5626,0.2239,-7.5269,-6.4216,0.0456,-1.5345,-1.3092,-0.21980536815379,-1.51003210010881,-1.8781110748398
1730865001592,-4.7627,0.7925,-1.6972,0.2365,-7.5287,-6.4354,0.0482,-1.5349,-1.312,-0.21720536815379,-1.51043210010881,-1.8809110748398
1730865001612,-4.9571,0.8149,-1.6972,0.2311,-7.5335,-6.4318,0.0471,-1.5358,-1.3112,-0.21830536815379,-1.51133210010881,-1.8801110748398
1730865001632,-4.7552,0.9196,-1.5925,0.2383,-7.5263,-6.418,0.0485,-1.5344,-1.3084,-0.21690536815379,-1.50993210010881,-1.8773110748398
1730865001652,-4.7029,0.7775,-1.6374,0.2418,-7.5347,-6.4324,0.0493,-1.5361,-1.3426,-0.21610536815379,-1.51163210010881,-1.9115110748398
1730865001672,-4.8748,0.8299,-1.5701,0.2359,-7.5245,-6.442,0.048,-1.534,-1.3133,-0.21740536815379,-1.50953210010881,-1.8822110748398
1730865001692,-4.9496,0.9196,-1.6374,0.2389,-7.5263,-6.4336,0.0487,-1.5344,-1.3116,-0.21670536815379,-1.50993210010881,-1.8805110748398
1730865001712,-4.8674,0.9121,-1.7121,0.2305,-7.5287,-6.4348,0.0487,-1.5343,-1.3103,-0.21670536815379,-1.50983210010881,-1.8792110748398
1730865001731,-4.7702,0.8822,-1.6149,0.2395,-7.5293,-6.4396,0.0488,-1.535,-1.3128,-0.21660536815379,-1.51053210010881,-1.8817110748398
1730865001752,-4.8674,0.9271,-1.6299,0.2377,-7.5341,-6.433,0.0484,-1.536,-1.3115,-0.21700536815379,-1.51153210010881,-1.8804110748398
1730865001772,-4.7402,0.9121,-1.5701,0.2359,-7.5323,-6.4216,0.0487,-1.5357,-1.311,-0.21670536815379,-1.51123210010881,-1.8799110748398
1730865001791,-4.7103,0.8972,-1.6075,0.2412,-7.5215,-6.433,0.0491,-1.5334,-1.3115,-0.21630536815379,-1.50893210010881,-1.8804110748398
1730865001810,-4.7402,0.9495,-1.6224,0.2311,-7.5287,-6.4276,0.0471,-1.5349,-1.3104,-0.21830536815379,-1.51043210010881,-1.8793110748398
1730865001831,-4.658,0.8523,-1.6448,0.2406,-7.5371,-6.436,0.0472,-1.5362,-1.3116,-0.21820536815379,-1.51173210010881,-1.8805110748398
1730865001851,-4.8225,0.8374,-1.5476,0.2406,-7.5269,-6.4324,0.049,-1.5345,-1.3114,-0.21640536815379,-1.51003210010881,-1.8803110748398
1730865001871,-4.7178,0.9046,-1.5551,0.2371,-7.5257,-6.4312,0.0483,-1.5343,-1.3111,-0.21710536815379,-1.50983210010881,-1.8800110748398
1730865001890,-4.7776,0.7925,-1.6149,0.2383,-7.5317,-6.4366,0.0502,-1.5343,-1.3122,-0.21520536815379,-1.50983210010881,-1.8811110748398
1730865001911,-4.8973,0.8747,-1.5028,0.2448,-7.5347,-6.4312,0.0499,-1.5361,-1.3111,-0.21550536815379,-1.51163210010881,-1.8800110748398
1730865001931,-4.9122,0.942,-1.7047,0.2311,-7.5215,-6.4336,0.0471,-1.5334,-1.3116,-0.21830536815379,-1.50893210010881,-1.8805110748398
1730865001950,-4.8898,0.8374,-1.6897,0.2383,-7.5275,-6.4378,0.0485,-1.5346,-1.3125,-0.21690536815379,-1.51013210010881,-1.8814110748398
1730865001971,-4.8524,0.8897,-1.6075,0.2323,-7.5311,-6.4348,0.0473,-1.5354,-1.3118,-0.21810536815379,-1.51093210010881,-1.8807110748398
1730865001991,-4.7552,0.7925,-1.7495,0.2317,-7.5185,-6.4312,0.0472,-1.5328,-1.3111,-0.21820536815379,-1.50833210010881,-1.8800110748398
1730865002011,-4.7477,0.8299,-1.6748,0.2436,-7.5263,-6.4264,0.0496,-1.5344,-1.3101,-0.21580536815379,-1.50993210010881,-1.8790110748398
1730865002031,-4.9645,0.9121,-1.6224,0.2383,-7.5293,-6.4324,0.0485,-1.535,-1.3114,-0.21690536815379,-1.51053210010881,-1.8803110748398
1730865002051,-4.8225,0.9346,-1.7271,0.2424,-7.5251,-6.433,0.048,-1.5336,-1.3094,-0.21740536815379,-1.50913210010881,-1.8783110748398
1730865002071,-4.7328,0.8149,-1.585,0.2454,-7.5323,-6.4348,0.05,-1.5356,-1.3118,-0.21540536815379,-1.51113210010881,-1.8807110748398
1730865002090,-4.9272,0.957,-1.6972,0.2395,-7.5209,-6.4324,0.0488,-1.5333,-1.3114,-0.21660536815379,-1.50883210010881,-1.8803110748398
1730865002110,-4.7627,0.9794,-1.585,0.2293,-7.5269,-6.4252,0.0489,-1.5351,-1.3089,-0.21650536815379,-1.51063210010881,-1.8778110748398
1730865002130,-4.8524,0.785,-1.6748,0.2412,-7.5287,-6.4258,0.0491,-1.5349,-1.31,-0.21630536815379,-1.51043210010881,-1.8789110748398
1730865002150,-4.9122,0.8,-1.6897,0.2317,-7.5281,-6.4198,0.0472,-1.5347,-1.3088,-0.21820536815379,-1.51023210010881,-1.8777110748398
1730865002171,-4.8075,0.9495,-1.6075,0.2341,-7.5203,-6.4324,0.0483,-1.5344,-1.3083,-0.21710536815379,-1.50993210010881,-1.8772110748398
1730865002190,-4.5608,0.7626,-1.5327,0.2389,-7.5293,-6.4342,0.0487,-1.535,-1.3117,-0.21670536815379,-1.51053210010881,-1.8806110748398
1730865002210,-4.6655,0.8224,-1.6075,0.2389,-7.5257,-6.4324,0.0487,-1.5343,-1.3114,-0.21670536815379,-1.50983210010881,-1.8803110748398
1730865002230,-4.7477,0.785,-1.6374,0.2401,-7.5209,-6.4288,0.0476,-1.536,-1.3106,-0.21780536815379,-1.51153210010881,-1.8795110748398
1730865002249,-4.9272,0.957,-1.6748,0.2508,-7.5311,-6.4342,0.0511,-1.5354,-1.3117,-0.21430536815379,-1.51093210010881,-1.8806110748398
1730865002270,-4.8599,0.8598,-1.6224,0.2365,-7.5221,-6.4294,0.0482,-1.5335,-1.3107,-0.21720536815379,-1.50903210010881,-1.8796110748398
1730865002289,-4.8225,0.8747,-1.6822,0.2263,-7.5287,-6.43,0.0461,-1.5349,-1.3109,-0.21930536815379,-1.51043210010881,-1.8798110748398
1730865002310,-4.8075,0.8822,-1.6374,0.2401,-7.5299,-6.4282,0.0489,-1.5351,-1.3105,-0.21650536815379,-1.51063210010881,-1.8794110748398
1730865002330,-4.7103,0.9121,-1.585,0.2323,-7.5251,-6.43,0.0473,-1.5341,-1.3109,-0.21810536815379,-1.50963210010881,-1.8798110748398
1730865002350,-4.658,0.8523,-1.6149,0.2383,-7.5287,-6.4354,0.0485,-1.5349,-1.312,-0.21690536815379,-1.51043210010881,-1.8809110748398
1730865002370,-4.6804,0.8,-1.7047,0.2383,-7.5299,-6.4324,0.0485,-1.5351,-1.3114,-0.21690536815379,-1.51063210010881,-1.8803110748398
1730865002389,-4.7402,0.8,-1.6299,0.2389,-7.5329,-6.4348,0.0484,-1.5334,-1.3089,-0.21700536815379,-1.50893210010881,-1.8778110748398
1730865002410,-4.7552,0.9196,-2.1383,0.282,-7.3503,-6.4665,0.0574,-1.4985,-1.3183,-0.20800536815379,-1.47403210010881,-1.8872110748398
1730865002430,-15.8657,8.0001,-18.4303,0.5149,-7.6335,-6.4713,0.1049,-1.5562,-1.3193,-0.16050536815379,-1.53173210010881,-1.8882110748398
1730865002449,-15.7087,2.0187,0.5682,0.3317,-7.5856,-6.345,0.065,-1.5478,-1.3044,-0.20040536815379,-1.52333210010881,-1.8733110748398
1730865002470,-11.3796,1.1962,-1.8467,0.4526,-7.5886,-6.0611,0.0922,-1.5471,-1.2357,-0.17320536815379,-1.52263210010881,-1.8046110748398
1730865002488,0.643,-1.914,0.0897,0.4101,-7.5898,-6.2426,0.0836,-1.5473,-1.2727,-0.18180536815379,-1.52283210010881,-1.8416110748398
1730865002498,2.1533,-3.0281,0.6729,0.3436,-7.5772,-6.3527,0.07,-1.5447,-1.2951,-0.19540536815379,-1.52023210010881,-1.8640110748398
1730865002509,2.1383,-3.3496,0.8673,0.252,-7.5634,-6.4036,0.0541,-1.5382,-1.3013,-0.21130536815379,-1.51373210010881,-1.8702110748398
1730865002519,1.8392,-3.1327,0.1794,0.3359,-7.5664,-6.4815,0.0684,-1.5426,-1.3214,-0.19700536815379,-1.51813210010881,-1.8903110748398
1730865002529,0.3215,-3.3122,0.2841,0.2766,-7.555,-6.5048,0.0563,-1.5402,-1.3261,-0.20910536815379,-1.51573210010881,-1.8950110748398
1730865002539,-2.8337,-2.3551,0.2915,0.1993,-7.5323,-6.4426,0.0406,-1.5356,-1.3134,-0.22480536815379,-1.51113210010881,-1.8823110748398
1730865002559,0.2915,-17.3985,4.1122,-1.4879,-8.0322,-5.6348,0.0612,-1.5622,-1.3385,-0.20420536815379,-1.53773210010881,-1.9074110748398
1730865002579,5.7646,-15.2302,32.4493,0.3993,-7.3036,-6.6186,0.0814,-1.489,-1.3493,-0.18400536815379,-1.46453210010881,-1.9182110748398
1730865002599,-5.9066,-12.8526,9.1291,0.3203,-7.4467,-6.8509,0.0653,-1.5181,-1.3967,-0.20010536815379,-1.49363210010881,-1.9656110748398
1730865002619,-10.6694,-15.4396,13.9816,0.628,-7.7562,-6.1683,0.1342,-1.5881,-1.2169,-0.13120536815379,-1.56363210010881,-1.7858110748398
1730865002639,6.0113,2.714,44.3673,0.3622,-7.3874,-6.5396,0.0738,-1.5061,-1.3332,-0.19160536815379,-1.48163210010881,-1.9021110748398
1730865002649,7.7833,4.2019,41.2869,0.7394,-7.2485,-6.63,0.1507,-1.4777,-1.3516,-0.11470536815379,-1.45323210010881,-1.9205110748398
1730865002659,7.5814,0.8224,29.1371,0.6616,-7.2563,-6.6928,0.1348,-1.4793,-1.3645,-0.13060536815379,-1.45483210010881,-1.9334110748398
1730865002669,6.445,-6.4076,17.4882,0.6436,-7.2826,-6.6749,0.1312,-1.4847,-1.3608,-0.13420536815379,-1.46023210010881,-1.9297110748398
1730865002689,0.0672,-9.5329,-2.1907,0.0269,-7.5203,-6.2983,0.0054,-1.5332,-1.284,-0.26000536815379,-1.50873210010881,-1.8529110748398
1730865002708,6.0263,0.299,14.3405,0.1401,-7.4976,-6.4893,0.0285,-1.5285,-1.3229,-0.23690536815379,-1.50403210010881,-1.8918110748398
1730865002718,8.0525,2.9084,21.4958,0.3125,-7.4239,-6.5737,0.0637,-1.5135,-1.3402,-0.20170536815379,-1.48903210010881,-1.9091110748398
1730865002728,8.8076,3.6112,24.0379,0.4945,-7.3125,-6.7431,0.197,-1.4473,-1.4001,-0.0684053681537904,-1.42283210010881,-1.9690110748398
1730865002738,0.7775,3.9328,10.3329,0.9663,-7.0994,-6.6809,0.1625,-1.46,-1.362,-0.10290536815379,-1.43553210010881,-1.9309110748398
1730865002748,0.157,0.1196,0.7102,0.4808,-7.3598,-6.5988,0.098,-1.5004,-1.3453,-0.16740536815379,-1.47593210010881,-1.9142110748398
1730865002759,0.5233,-1.286,-4.658,0.2149,-8.5101,-6.4437,0.0438,-1.7349,-1.3137,-0.22160536815379,-1.71043210010881,-1.8826110748398
1730865002779,-67.5753,19.2228,-120.5036,-3.1362,-8.7621,-4.9427,0.6394,-1.7863,-1.0076,0.37399463184621,-1.76183210010881,-1.5765110748398
1730865002799,-31.724,99.2022,-48.6366,0.1886,-7.3952,-7.3539,0.0384,-1.5076,-1.4992,-0.22700536815379,-1.48313210010881,-2.0681110748398
1730865002819,-22.0266,81.5719,-57.1153,0.2424,-8.8268,-7.1766,0.0494,-1.7995,-1.4631,-0.21600536815379,-1.77503210010881,-2.0320110748398
1730865002839,-38.0793,53.7507,-28.8305,1.0711,-7.5251,-7.1934,0.2183,-1.5341,-1.4665,-0.0471053681537904,-1.50963210010881,-2.0354110748398
1730865002858,-20.0453,-9.4357,10.3105,0.3137,-7.6323,-6.4887,0.0639,-1.556,-1.3228,-0.20150536815379,-1.53153210010881,-1.8917110748398
1730865002879,-18.7368,-34.1839,14.6919,-1.2256,-7.9466,-6.1168,0.2498,-1.6201,-1.247,-0.0156053681537904,-1.59563210010881,-1.8159110748398
1730865002898,-19.1854,-21.1369,5.8319,-1.8836,-8.246,-5.7947,0.4152,-1.7254,-1.2363,0.14979463184621,-1.70093210010881,-1.8052110748398
1730865002917,-23.7164,16.2919,-12.9946,-1.413,-8.54,-5.7234,0.288,-1.741,-1.1668,0.0225946318462096,-1.71653210010881,-1.7357110748398
1730865002937,-32.0156,28.7184,-9.0618,0.931,-8.1586,-5.7642,0.1898,-1.6633,-1.1751,-0.0756053681537904,-1.63883210010881,-1.7440110748398
1730865002958,-38.8793,34.0344,-15.0283,0.8358,-7.0257,-5.6941,0.1302,-1.4615,-1.1571,-0.13520536815379,-1.43703210010881,-1.7260110748398
1730865002978,-23.5519,26.8566,-23.1706,0.4939,-7.6263,-5.6696,0.1007,-1.5548,-1.1558,-0.16470536815379,-1.53033210010881,-1.7247110748398
1730865002998,-17.0022,10.1684,-16.9648,0.8795,-8.264,-5.3546,0.1793,-1.6848,-1.0916,-0.0861053681537904,-1.66033210010881,-1.6605110748398
1730865003018,-18.0863,0.7252,-9.1067,-1.5399,-8.5166,-5.3828,0.3502,-1.7313,-1.1156,0.0847946318462096,-1.70683210010881,-1.6845110748398
1730865003038,-20.4415,7.9777,-10.946,-1.5777,-8.1903,-5.4169,0.3216,-1.6697,-1.1043,0.0561946318462096,-1.64523210010881,-1.6732110748398
1730865003058,-23.7014,14.3554,-18.4901,-1.2334,-7.8281,-5.5594,0.2514,-1.5959,-1.1334,-0.0140053681537904,-1.57143210010881,-1.7023110748398
1730865003078,-16.3966,26.4305,-27.5894,-1.9202,-7.8598,-5.4953,0.3276,-1.7211,-1.1203,0.0621946318462096,-1.69663210010881,-1.6892110748398
1730865003098,-20.4939,22.8565,-24.2771,-1.1208,-8.6118,-5.1289,0.2285,-1.7557,-1.0456,-0.0369053681537904,-1.73123210010881,-1.6145110748398
1730865003118,-19.6714,7.5889,2.557,-1.425,-8.6292,-5.2163,0.2905,-1.7592,-1.0634,0.0250946318462096,-1.73473210010881,-1.6323110748398
1730865003136,-26.8342,0.0224,0.5831,-1.8926,-7.9849,-5.6175,0.3858,-1.6279,-1.1452,0.12039463184621,-1.60343210010881,-1.7141110748398
1730865003158,-21.1593,13.4208,-4.7103,-2.0369,-7.5952,-5.4444,0.4152,-1.5484,-1.1099,0.14979463184621,-1.52393210010881,-1.6788110748398
1730865003178,-15.3947,26.0192,-18.8714,-1.9106,-8.6088,-4.7954,0.3895,-1.7551,0.9776,0.12409463184621,-1.73063210010881,0.408688925160198
1730865003198,-24.0603,27.8959,-11.5965,-1.9848,-9.013,-4.9439,0.4046,-1.8375,-1.0079,0.13919463184621,-1.81303210010881,-1.5768110748398
1730865003216,-28.838,24.8155,-19.178,-1.8232,-8.5849,-4.5128,0.3717,-1.7502,0.92,0.10629463184621,-1.72573210010881,0.351088925160198
1730865003236,-29.2343,18.3406,-28.9053,-2.0836,-8.5867,-5.1504,0.3935,-1.7812,-1.0657,0.12809463184621,-1.75673210010881,-1.6346110748398
1730865003257,-32.4493,20.8079,-4.5533,-2.2381,-8.264,-4.8403,0.4562,-1.6848,0.9868,0.19079463184621,-1.66033210010881,0.417888925160198
1730865003277,-32.1054,26.9389,1.3009,-1.9232,-8.0376,-4.599,0.392,-1.6386,0.9376,0.12659463184621,-1.61413210010881,0.368688925160198
1730865003297,-29.8922,24.9725,-6.759,-2.1279,-7.8826,-4.4014,0.479,-1.6582,0.868,0.21359463184621,-1.63373210010881,0.299088925160198
1730865003317,-16.8826,25.9295,-24.7257,-2.7075,-8.9561,-4.105,0.552,-1.8259,0.8369,0.28659463184621,-1.80143210010881,0.267988925160198
1730865003336,-22.0266,32.6736,-43.5972,-3.1434,-9.1663,-4.5331,0.6408,-1.8687,0.9241,0.37539463184621,-1.84423210010881,0.355188925160198
1730865003357,-32.853,52.9881,-55.0068,-3.1284,-8.8501,-4.1583,0.6678,-1.7453,0.8457,0.40239463184621,-1.72083210010881,0.276788925160198
1730865003377,-39.3728,67.0819,-80.413,-3.6182,-7.8885,-3.7523,0.7376,-1.6082,0.765,0.47219463184621,-1.58373210010881,0.196088925160198
1730865003397,-33.7876,81.213,-105.2061,-3.7643,-8.1514,-3.9529,0.7674,-1.6618,0.8059,0.50199463184621,-1.63733210010881,0.236988925160198
1730865003417,-31.4997,87.2393,-136.3844,-4.3978,-9.0837,-3.7607,0.9178,-1.8319,0.7537,0.652394631846209,-1.80743210010881,0.184788925160198
1730865003436,-33.3839,85.4748,-135.9582,-4.2487,-8.4376,-3.462,0.8662,-1.7202,0.7058,0.60079463184621,-1.69573210010881,0.136888925160198
1730865003457,-29.3688,71.1866,-112.0773,-4.4206,-7.9544,-3.2063,0.9012,-1.6217,0.6536,0.63579463184621,-1.59723210010881,0.0846889251601978
1730865003477,-22.1911,44.7935,-90.8506,-5.6223,-7.7903,-3.1997,-1.1462,-1.5882,0.6523,-1.41160536815379,-1.56373210010881,0.0833889251601978
1730865003497,-14.7816,35.7914,-59.5677,-5.1534,-8.4125,-2.8255,-1.0506,-1.715,0.576,-1.31600536815379,-1.69053210010881,0.00708892516019777
1730865003517,-18.5499,21.2341,-4.0449,-5.5564,-7.9843,-2.8877,-1.1328,-1.6278,0.5887,-1.39820536815379,-1.60333210010881,0.0197889251601978
1730865003537,-20.2098,13.5031,-17.5032,-6.2048,-7.2,-2.7943,-1.265,-1.4678,0.5697,-1.53040536815379,-1.44333210010881,0.000788925160197795
1730865003557,-11.3796,21.1145,-13.0545,-5.6989,-7.6688,-2.3111,-1.1618,-1.5634,0.4711,-1.42720536815379,-1.53893210010881,-0.0978110748398022
1730865003576,-17.6676,23.2977,-18.0265,-5.7803,-7.0168,-2.2357,-1.2097,-1.4921,0.462,-1.47510536815379,-1.46763210010881,-0.106911074839802
1730865003596,-12.7554,18.9088,-39.0887,-6.4647,-7.7945,-2.104,-1.3179,-1.5891,0.4289,-1.58330536815379,-1.56463210010881,-0.140011074839802
1730865003616,-15.9779,20.307,-35.8886,-6.2354,-7.9855,-2.2321,-1.2712,-1.628,0.455,-1.53660536815379,-1.60353210010881,-0.113911074839802
1730865003636,-19.3724,16.4714,-28.838,-6.3096,-7.379,-2.2243,-1.296,-1.5322,0.4918,-1.56140536815379,-1.50773210010881,-0.0771110748398022
1730865003655,-19.0808,13.0993,-26.1688,-6.4755,-7.1706,-2.2285,-1.3201,-1.4619,0.4543,-1.58550536815379,-1.43743210010881,-0.114611074839802
1730865003676,-16.6807,14.6694,-43.7243,-6.8365,-7.1425,-2.004,-1.3937,-1.4561,0.4085,-1.65910536815379,-1.43163210010881,-0.160411074839802
1730865003696,-12.7928,19.5817,-45.3617,-6.6815,-7.0898,-1.8279,-1.3469,-1.5107,0.3911,-1.61230536815379,-1.48623210010881,-0.177811074839802
1730865003716,-17.2938,15.6414,-34.2213,-6.8581,-7.2754,-2.0028,-1.3981,-1.4832,0.4083,-1.66350536815379,-1.45873210010881,-0.160611074839802
1730865003735,-22.4752,18.206,-46.6178,-7.1802,-6.8563,-1.5699,-1.4638,-1.3978,0.32,-1.72920536815379,-1.37333210010881,-0.248911074839802
1730865003756,-38.1541,28.3221,-69.6165,-7.2766,-7.5377,-2.0369,-1.4819,-1.2727,0.4152,-1.74730536815379,-1.24823210010881,-0.153711074839802
1730865003776,-30.8493,30.5801,-75.254,-7.6383,-6.5869,-1.7184,-1.5572,-1.3428,0.3503,-1.82260536815379,-1.31833210010881,-0.218611074839802
1730865003795,-23.036,23.993,-109.1838,-7.7401,-5.8929,-1.4537,-1.578,-1.2014,0.2963,-1.84340536815379,-1.17693210010881,-0.272611074839802
1730865003816,-13.3984,20.9799,-60.6668,-7.4964,-6.7922,-1.2597,-1.5283,-1.3847,0.2568,-1.79370536815379,-1.36023210010881,-0.312111074839802
1730865003836,-18.9312,18.0041,-12.7853,-7.5754,-5.6887,-1.2046,-1.5444,-1.1597,0.2456,-1.80980536815379,-1.13523210010881,-0.323311074839802
1730865003856,-14.3255,11.2525,-15.3498,-7.6838,-5.8061,-1.1232,-1.5665,-1.1837,0.229,-1.83190536815379,-1.15923210010881,-0.339911074839802
1730865003875,-8.6282,1.3084,-8.4936,-8.2232,-6.3491,0.9496,-1.6765,-1.2944,0.1936,-1.94190536815379,-1.26993210010881,-0.375311074839802
1730865003895,-11.3572,4.0599,-2.3103,-8.0945,-5.8737,0.9041,-1.6502,-1.1975,0.1843,-1.91560536815379,-1.17303210010881,-0.384611074839802
1730865003915,-12.1946,2.2505,-20.1275,-8.4424,-6.045,-1.1298,-1.6899,-1.1433,0.1622,-1.95530536815379,-1.11883210010881,-0.406711074839802
1730865003935,-11.9329,9.0843,-42.1542,-8.4011,-6.3659,-1.1316,-1.7127,-1.2978,0.2307,-1.97810536815379,-1.27333210010881,-0.338211074839802
1730865003955,-15.8209,13.9965,-21.5257,-8.5226,-5.6109,0.6849,-1.7375,-1.1439,0.1396,-2.00290536815379,-1.11943210010881,-0.429311074839802
1730865003975,-15.8134,25.3164,-44.8832,-8.8951,-5.2001,0.9178,-1.8572,-1.0982,0.1446,-2.12260536815379,-1.07373210010881,-0.424311074839802
1730865003994,-9.3235,42.7822,-105.5874,-9.1322,-5.4708,0.852,-1.8618,-1.1153,0.1737,-2.12720536815379,-1.09083210010881,-0.395211074839802
1730865004014,-9.1142,47.1038,-97.5125,-7.9891,-5.2486,0.4957,-1.6287,-1.07,0.101,-1.89410536815379,-1.04553210010881,-0.467911074839802
1730865004034,-25.5856,16.8601,-41.1747,-8.3807,-5.9755,-1.1579,-1.6584,0.6904,0.1604,-1.92380536815379,0.714867899891186,-0.408511074839802
1730865004055,-4.9571,1.5028,-47.859,-9.4267,-4.9169,0.1838,-1.9218,-1.0024,0.0374,-2.18720536815379,-0.977932100108814,-0.531511074839802
1730865004075,-9.5104,10.774,-46.6178,-9.3082,-4.866,0.0335,-1.8977,0.992,0.0068,-2.16310536815379,1.01646789989119,-0.562111074839802
1730865004094,-14.8265,18.7966,-8.9048,-8.452,-4.1373,0.0011,-1.6774,0.9049,0.0251,-1.94280536815379,0.929367899891186,-0.543811074839802
1730865004114,-14.6694,4.3141,10.931,-8.3418,-4.1655,0.1514,-1.7006,0.8492,0.0308,-1.96600536815379,0.873667899891186,-0.538111074839802
1730865004134,-10.5722,-7.073,15.6115,-8.7382,-4.3571,0.0077,-1.7814,0.8883,0.0015,-2.04680536815379,0.912767899891186,-0.567411074839802
1730865004154,-9.174,-11.8432,12.0526,-9.5196,-4.6074,0.1874,-1.9407,0.9393,0.0382,-2.20610536815379,0.963767899891186,-0.530711074839802
1730865004174,-9.0245,-3.858,0.5757,-9.5411,-4.7014,0.3353,-1.9451,0.9584,0.0683,-2.21050536815379,0.982867899891186,-0.500611074839802
1730865004184,-8.7403,0.2766,-4.2767,-9.5794,-4.7133,0.3945,-1.953,0.9609,0.0804,-2.21840536815379,0.985367899891186,-0.488511074839802
1730865004194,-7.7684,1.114,-8.5758,-9.4962,-4.9277,0.0407,-1.936,-1.0046,0.0083,-2.20140536815379,-0.980132100108814,-0.560611074839802
1730865004214,-12.8376,1.8467,-14.8489,-9.3477,-5.1959,0.0586,-1.9057,-1.0593,0.0119,-2.17110536815379,-1.03483210010881,-0.557011074839802
1730865004234,-17.1443,1.1962,-5.0543,-9.5303,-4.9002,0.0359,-1.9429,0.999,0.0073,-2.20830536815379,1.02346789989119,-0.561611074839802
1730865004254,-17.8695,9.4207,-2.3626,-9.2322,-4.2918,0.1844,-1.8822,0.875,0.0289,-2.14760536815379,0.899467899891186,-0.540011074839802
1730865004274,-13.204,8.0599,-2.714,-8.8454,-4.6253,0.0443,-1.8033,0.9429,0.009,-2.06870536815379,0.967367899891186,-0.559911074839802
1730865004294,-13.1666,1.2561,7.5665,-9.0681,-4.605,0.0431,-1.8487,0.9388,0.0087,-2.11410536815379,0.963267899891186,-0.560211074839802
1730865004304,-12.7554,0.0299,9.5329,-9.1717,-4.7505,0.1526,-1.8698,0.9685,0.0311,-2.13520536815379,0.992967899891186,-0.537811074839802
1730865004313,-13.3685,0.0074,10.8862,-9.1603,-4.6607,0.0371,-1.8801,-1.0075,0.0061,-2.14550536815379,-0.983032100108814,-0.562811074839802
1730865004334,-14.004,-3.3496,24.3968,-9.0453,-5.1474,0.0443,-1.8441,-1.0494,0.009,-2.10950536815379,-1.02493210010881,-0.559911074839802
1730865004354,-16.9947,-6.8412,48.9805,-9.1771,-5.0558,0.3161,-1.8709,-1.0307,0.0644,-2.13630536815379,-1.00623210010881,-0.504511074839802
1730865004373,-17.1443,6.2655,46.4683,-10.2135,-4.9187,0.567,-2.2016,0.937,0.0725,-2.46700536815379,0.961467899891186,-0.496411074839802
1730865004394,-5.0692,44.0084,21.9892,-9.1142,-5.2606,0.446,-1.8581,-1.0725,0.0909,-2.12350536815379,-1.04803210010881,-0.478011074839802
1730865004413,-6.587,48.6889,21.9444,-8.6029,-5.5863,0.4305,-1.7539,-1.1389,0.0877,-2.01930536815379,-1.11443210010881,-0.481211074839802
1730865004433,-15.933,34.1241,7.2151,-8.2268,-5.4624,0.7939,-1.7401,-1.1251,0.1556,-2.00550536815379,-1.10063210010881,-0.413311074839802
1730865004453,-23.0734,36.397,-5.6001,-9.1226,-4.9708,0.5496,-1.8598,-1.0134,0.112,-2.12520536815379,-0.988932100108814,-0.456911074839802
1730865004473,-19.7387,48.8908,-6.7366,-8.4226,-4.684,0.5532,-1.7171,0.9549,0.1127,-1.98250536815379,0.979367899891186,-0.456211074839802
1730865004493,-12.8451,40.5018,-13.8769,-8.1873,-4.9487,1.2579,-1.6752,-1.0089,0.2564,-1.94060536815379,-0.984432100108814,-0.312511074839802
1730865004513,-14.1236,37.3391,-12.7703,-8.7765,-5.178,1.625,-1.7893,-1.0556,0.3312,-2.05470536815379,-1.03113210010881,-0.237711074839802
1730865004532,-16.1274,44.6664,-11.8731,-8.7442,-4.972,1.4621,-1.7827,-1.0136,0.298,-2.04810536815379,-0.989132100108814,-0.270911074839802
1730865004553,-15.0732,43.1262,-6.4973,-8.0101,-4.6625,1.4705,-1.633,0.9505,0.2998,-1.89840536815379,0.974967899891186,-0.269111074839802
1730865004573,-14.2657,33.9596,-6.6169,-8.2406,-4.8816,1.792,-1.68,0.9952,0.3653,-1.94540536815379,1.01966789989119,-0.203611074839802
1730865004593,-15.4321,33.4213,2.3925,-8.628,-4.8996,1.8908,-1.759,0.9989,0.4167,-2.02440536815379,1.02336789989119,-0.152211074839802
1730865004613,-17.563,41.5037,-4.0898,-8.2394,-4.5439,1.9716,-1.6798,0.9263,0.4019,-1.94520536815379,0.950767899891186,-0.167011074839802
1730865004633,-14.7592,34.9017,-6.6468,-7.7592,-4.7505,2.0675,-1.5819,0.9685,0.4215,-1.84730536815379,0.992967899891186,-0.147411074839802
1730865004652,-14.2134,20.6658,-5.1515,-8.2933,-5.1492,2.1369,-1.7236,-1.0104,0.4654,-1.98900536815379,-0.985932100108814,-0.103511074839802
1730865004673,-18.2284,17.7723,-10.9161,-8.1801,-4.5217,2.2501,-1.6677,0.9218,0.4587,-1.93310536815379,0.946267899891186,-0.110211074839802
1730865004693,-16.7929,11.9479,-30.2062,-7.8137,-4.52,2.2998,-1.593,0.9215,0.4688,-1.85840536815379,0.945967899891186,-0.100111074839802
1730865004713,-19.8733,2.3925,-73.8259,-8.1885,-4.2607,2.3716,-1.7537,0.9542,0.5402,-2.01910536815379,0.978667899891186,-0.0287110748398022
1730865004733,-15.9106,-4.9795,-58.7751,-8.6567,-5.1145,2.8219,-1.7648,-1.0427,0.5753,-2.03020536815379,-1.01823210010881,0.00638892516019784
1730865004752,-18.4527,-7.2749,-19.1929,-8.8358,-4.6277,2.5578,-1.8013,0.9434,0.5214,-2.06670536815379,0.967867899891186,-0.0475110748398022
1730865004771,-19.7836,-12.5759,4.4262,-8.7454,-4.5092,2.6967,-1.7913,0.9489,0.595,-2.05670536815379,0.973367899891186,0.0260889251601978
1730865004792,-22.0117,-15.5368,19.3051,-9.1537,-5.3804,3.1716,-1.8662,-1.0969,0.6466,-2.13160536815379,-1.07243210010881,0.0776889251601978
1730865004811,-35.1185,-10.5123,30.9465,-9.1974,-5.0031,2.6698,-1.8751,-1.02,0.5443,-2.14050536815379,-0.995532100108814,-0.0246110748398022
1730865004832,-45.6982,-2.4299,16.2471,-8.7861,-3.8422,2.7201,-1.7918,0.7899,0.5545,-2.05720536815379,0.814367899891186,-0.0144110748398022
1730865004852,-39.4476,2.1458,-1.8019,-9.0441,-4.7104,2.9165,-1.8438,0.9603,0.5946,-2.10920536815379,0.984767899891186,0.0256889251601978
1730865004872,-43.8365,11.417,10.774,-8.6274,-4.7092,2.5938,-1.7589,0.96,0.5288,-2.02430536815379,0.984467899891186,-0.0401110748398021
1730865004892,-40.2925,8.5086,-7.8506,-8.9495,-3.2183,2.8386,-1.8245,0.6561,0.5787,-2.08990536815379,0.680567899891186,0.0097889251601978
1730865004912,-21.2341,15.2003,-48.3973,-8.7346,-4.2224,3.5152,-1.7807,0.8608,0.7166,-2.04610536815379,0.885267899891186,0.147688925160198
1730865004932,-23.0883,16.9723,-44.6066,-8.4598,-5.0175,3.0302,-1.7247,-1.0229,0.6177,-1.99010536815379,-0.998432100108814,0.0487889251601978
1730865004952,-37.6232,9.4058,27.5819,-8.4759,-3.5326,3.1051,-1.728,0.7202,0.633,-1.99340536815379,0.744667899891186,0.0640889251601978
1730865004972,-30.5502,8.8002,41.9747,-8.3699,-3.9487,3.0865,-1.7064,0.805,0.6292,-1.97180536815379,0.829467899891186,0.0602889251601978
1730865004992,-28.2473,2.5047,51.1264,-8.0915,-4.3553,3.1674,-1.7121,0.9403,0.642,-1.97750536815379,0.964767899891186,0.0730889251601978
1730865005012,-29.6978,-12.1572,65.2725,-8.537,-5.1935,3.068,-1.7404,-1.0588,0.6254,-2.00580536815379,-1.03433210010881,0.0564889251601978
1730865005032,-35.8363,-13.2489,88.0468,-8.8268,-5.3582,3.5775,-1.7995,-1.0924,0.7293,-2.06490536815379,-1.06793210010881,0.160388925160198
1730865005052,-43.186,-1.6972,102.5144,-8.422,-5.163,3.3542,-1.647,0.941,0.6374,-1.91240536815379,0.965467899891186,0.0684889251601978
1730865005071,-39.2532,4.0898,91.0076,-7.7568,-4.584,3.426,-1.5814,0.9345,0.6984,-1.84680536815379,0.958967899891186,0.129488925160198
1730865005091,-34.1615,4.6356,79.0074,-7.3287,-5.4384,3.5512,-1.4941,-1.1087,0.7239,-1.75950536815379,-1.08423210010881,0.154988925160198
1730865005111,-37.4513,3.9627,106.1033,-7.2437,-5.3289,3.72,-1.4433,0.9826,0.7823,-1.70870536815379,1.00706789989119,0.213388925160198
1730865005131,-27.1632,3.701,84.1664,-7.3048,-5.3085,3.8583,-1.4892,-1.0822,0.7866,-1.75460536815379,-1.05773210010881,0.217688925160198
1730865005151,-22.9463,7.5141,45.5038,-6.985,-5.7127,3.808,-1.424,-1.1646,0.7763,-1.68940536815379,-1.14013210010881,0.207388925160198
1730865005171,-22.6472,6.8113,38.842,-7.0359,-6.6521,3.8475,-1.3988,-1.3444,0.7844,-1.66420536815379,-1.31993210010881,0.215488925160198
1730865005191,-29.7277,6.445,55.8293,-6.2444,-6.2917,3.5332,-1.273,-1.2827,0.7203,-1.53840536815379,-1.25823210010881,0.151388925160198
1730865005211,-30.9988,-8.0674,77.8858,-6.133,-6.5988,3.7673,-1.2503,-1.3453,0.768,-1.51570536815379,-1.32083210010881,0.199088925160198
1730865005231,-47.4253,-13.5105,94.8582,-6.3168,-6.1959,3.9883,-1.2878,-1.2631,0.8131,-1.55320536815379,-1.23863210010881,0.244188925160198
1730865005251,-44.2327,-13.6526,95.6657,-6.1007,-6.4432,3.9859,-1.2437,-1.3135,0.8126,-1.50910536815379,-1.28903210010881,0.243688925160198
1730865005271,-44.9655,-14.4377,83.142,-6.1252,-6.3414,4.3391,-1.2487,-1.2928,0.8846,-1.51410536815379,-1.26833210010881,0.315688925160198
1730865005291,-43.9561,-10.445,67.7174,-5.4666,-6.9072,3.9266,-1.1145,-1.4082,0.8005,-1.37990536815379,-1.38373210010881,0.231588925160198
1730865005311,-45.6085,-17.0246,78.1849,-5.2618,-6.9473,3.9044,-1.0727,-1.4163,0.796,-1.33810536815379,-1.39183210010881,0.227088925160198
1730865005331,-46.8048,-29.2118,100.9219,-4.5152,-7.2658,4.2631,0.9205,-1.4379,0.8646,0.65509463184621,-1.41343210010881,0.295688925160198
1730865005351,-45.8029,-44.5991,112.9296,-5.6115,-6.7216,4.6804,-1.144,-1.3703,0.9542,-1.40940536815379,-1.34583210010881,0.385288925160198
1730865005371,-42.7972,-28.8081,69.0408,-5.2989,-7.1533,4.6894,-1.0803,-1.4583,0.956,-1.34570536815379,-1.43383210010881,0.387088925160198
1730865005390,-39.6345,-21.892,36.255,-4.7002,-8.5101,4.393,0.9449,-1.8668,0.8044,0.67949463184621,-1.84233210010881,0.235488925160198
1730865005410,-62.6481,-24.8229,56.3078,-4.4295,-7.7652,4.3062,0.903,-1.5831,0.8779,0.63759463184621,-1.55863210010881,0.308988925160198
1730865005430,-64.6519,-26.5202,81.1682,-4.6355,-5.9839,4.299,0.945,-1.2199,0.8764,0.67959463184621,-1.19543210010881,0.307488925160198
1730865005450,-48.345,-16.0975,29.1445,-4.9475,-5.9109,4.7349,0.9552,-1.3311,1.009,0.68979463184621,-1.30663210010881,0.440088925160198
1730865005470,-32.9801,-8.0151,24.2098,-4.0026,-7.288,5.0654,0.816,-1.4858,1.0327,0.55059463184621,-1.46133210010881,0.463788925160198
1730865005490,-34.8867,-9.7647,38.7821,-3.896,-7.4646,5.0127,0.7943,-1.5218,1.0219,0.52889463184621,-1.49733210010881,0.452988925160198
1730865005509,-28.4642,-32.8755,129.3861,-2.5914,-8.2604,4.7217,0.5565,-1.6337,0.958,0.29109463184621,-1.60923210010881,0.389088925160198
1730865005530,-26.8417,-58.0723,174.2395,-3.1829,-7.6305,5.0043,0.6489,-1.5556,1.0202,0.38349463184621,-1.53113210010881,0.451288925160198
1730865005550,-27.7464,-59.5751,190.3071,-3.8739,-7.6065,5.4133,0.7897,-1.5507,1.1036,0.52429463184621,-1.52623210010881,0.534688925160198
1730865005570,-34.0718,-40.0083,128.7879,-3.0829,-7.5676,5.2444,0.6285,-1.5428,1.0692,0.36309463184621,-1.51833210010881,0.500288925160198
1730865005590,-33.4288,-32.1502,105.3332,-2.8794,-7.5257,5.1175,0.587,-1.5343,1.0433,0.32159463184621,-1.50983210010881,0.474388925160198
1730865005610,-28.5015,-22.0864,67.1716,-2.5015,-7.6993,4.89,0.51,-1.5697,0.9969,0.24459463184621,-1.54523210010881,0.427988925160198
1730865005630,-24.8603,-21.9145,60.5845,-1.7148,-8.0718,5.3331,0.3496,-1.6456,1.0872,0.0841946318462096,-1.62113210010881,0.518288925160198
1730865005649,-25.6379,-29.496,77.5793,-1.1238,-8.0718,5.8085,0.2291,-1.6456,1.1842,-0.0363053681537904,-1.62113210010881,0.615288925160198
1730865005670,-28.9651,-47.5823,114.5222,0.8855,-8.0574,5.9959,0.1805,-1.6114,1.1191,-0.0849053681537904,-1.58693210010881,0.550188925160198
1730865005689,-40.3897,-59.6723,97.7368,-2.4034,-7.1257,5.7869,0.4899,-1.4527,1.1798,0.22449463184621,-1.42823210010881,0.610888925160198
1730865005709,-31.8287,-39.1036,62.85,-2.3393,-7.3215,5.854,0.4769,-1.4926,1.1934,0.21149463184621,-1.46813210010881,0.624488925160198
1730865005729,-25.3538,-19.7985,46.416,-1.0568,-7.9352,5.2882,0.2023,-1.6229,1.0844,-0.0631053681537904,-1.59843210010881,0.515488925160198
1730865005750,-27.5071,-22.0416,57.8106,-1.4561,-7.267,5.6432,0.2968,-1.4815,1.1505,0.0313946318462096,-1.45703210010881,0.581588925160198
1730865005769,-19.8583,-13.6227,48.8385,-1.1496,-7.1676,5.9935,0.2343,-1.4613,1.2219,-0.0311053681537904,-1.43683210010881,0.652988925160198
1730865005789,-14.5573,-17.2789,43.8439,0.3347,-7.8628,6.136,0.0135,-1.6867,1.2175,-0.25190536815379,-1.66223210010881,0.648588925160198
1730865005809,-29.3539,-32.1502,40.0233,0.2424,-8.5316,5.7055,0.0494,-1.7393,1.1632,-0.21600536815379,-1.71483210010881,0.594288925160198
1730865005828,-40.3672,-39.5896,61.4144,0.7364,-7.7407,5.627,0.1501,-1.5781,1.1472,-0.11530536815379,-1.55363210010881,0.578288925160198
1730865005849,-37.3989,-31.7016,64.4351,-1.2388,-7.2724,5.7264,0.2475,-1.4792,1.1943,-0.0179053681537904,-1.45473210010881,0.625388925160198
1730865005868,-36.6886,-19.4995,39.6046,0.7496,-7.2084,6.1444,0.1528,-1.4696,1.2526,-0.11260536815379,-1.44513210010881,0.683688925160198
1730865005889,-32.6512,-14.7891,21.7276,0.5921,-7.3,5.8995,0.1207,-1.4882,1.2027,-0.14470536815379,-1.46373210010881,0.633788925160198
1730865005909,-34.2736,-9.2413,11.2675,0.7214,-8.0203,5.851,0.147,-1.6351,1.1928,-0.11840536815379,-1.61063210010881,0.623888925160198
1730865005929,-36.5391,-30.6848,64.7566,0.3263,-8.0831,6.1312,0.0665,-1.6479,1.25,-0.19890536815379,-1.62343210010881,0.681088925160198
1730865005949,-44.1206,-40.4046,111.0081,0.6358,-7.3269,6.5348,0.1296,-1.4937,1.3322,-0.13580536815379,-1.46923210010881,0.763288925160198
1730865005969,-36.427,-29.0623,119.3148,0.0952,-6.7767,6.7785,0.0194,-1.3815,1.3819,-0.24600536815379,-1.35703210010881,0.812988925160198
1730865005989,-33.0325,-28.8978,100.3761,0.1622,-6.8533,6.6551,0.033,-1.3972,1.3568,-0.23240536815379,-1.37273210010881,0.787888925160198
1730865006008,-31.5895,-26.6921,82.0878,0.1748,-6.7797,6.6599,0.0356,-1.3822,1.3646,-0.22980536815379,-1.35773210010881,0.795688925160198
1730865006028,-26.9165,-18.8938,42.4009,0.1149,-6.2725,7.0245,0.0234,-1.2788,1.4321,-0.24200536815379,-1.25433210010881,0.863188925160198
1730865006048,-19.5069,-7.4394,28.6212,1.2633,-7.0192,6.7856,0.2575,-1.431,1.3834,-0.00790536815379039,-1.40653210010881,0.814488925160198
1730865006068,-25.0921,-19.8808,44.4346,1.5094,-7.0575,6.8689,0.2823,-1.4152,1.3774,0.0168946318462096,-1.39073210010881,0.808488925160198
1730865006088,-32.397,-39.7392,68.7417,1.0484,-6.7359,6.9449,0.2137,-1.3732,1.4158,-0.0517053681537904,-1.34873210010881,0.846888925160198
1730865006108,-33.9222,-44.3748,77.4522,0.6753,-6.2168,7.188,0.1376,-1.2674,1.4654,-0.12780536815379,-1.24293210010881,0.896488925160198
1730865006127,-29.7576,-44.8982,82.7607,1.1855,-6.327,6.8036,0.2459,-1.3197,1.5383,-0.0195053681537904,-1.29523210010881,0.969388925160198
1730865006148,-39.4027,-45.4589,85.7215,1.3154,-6.2036,6.6276,0.2681,-1.2647,1.3511,0.00269463184620961,-1.24023210010881,0.782188925160198
1730865006168,-47.8665,-59.9041,99.8377,1.3028,-6.6425,7.564,0.2656,-1.3542,1.5421,0.000194631846209603,-1.32973210010881,0.973188925160198
1730865006188,-56.4947,-49.9375,63.3435,0.0778,-4.9624,6.2324,0.1939,0.8942,1.5537,-0.0715053681537904,0.918667899891186,0.984788925160198
1730865006208,-34.9989,-44.9729,37.0999,0.0712,-5.4163,8.1783,0.0145,-1.1042,1.6673,-0.25090536815379,-1.07973210010881,1.0983889251602
1730865006228,-29.2343,-14.7442,22.9612,1.307,-5.1355,7.5383,0.2664,-1.0469,1.5368,0.000994631846209626,-1.02243210010881,0.967888925160198
1730865006247,-40.0906,-27.38,42.7598,3.4871,-6.6168,8.9202,0.6879,-1.3489,1.8186,0.42249463184621,-1.32443210010881,1.2496889251602
1730865006267,-55.0517,-56.9657,104.6603,0.2472,-4.7014,7.979,0.0504,0.9584,1.6267,-0.21500536815379,0.982867899891186,1.0577889251602
1730865006287,-43.2084,-36.1279,58.7602,0.2478,-3.7122,8.3083,0.0505,0.7568,1.6938,-0.21490536815379,0.781267899891186,1.1248889251602
1730865006306,-26.1987,-8.3142,24.4416,1.8375,-5.0043,9.0537,0.3746,-1.0202,1.8458,0.10919463184621,-0.995732100108814,1.2768889251602
1730865006327,-29.3838,-17.3013,29.8025,1.0095,-4.4218,8.6094,0.2058,0.9014,1.7552,-0.0596053681537904,0.925867899891186,1.1862889251602
1730865006346,-22.9238,-12.5834,44.943,1.0981,-4.5355,8.7214,0.2238,0.9246,1.7468,-0.0416053681537904,0.949067899891186,1.1778889251602
1730865006367,-31.7913,-26.251,49.6086,2.592,-5.1714,9.6219,0.5284,-1.0543,1.9616,0.26299463184621,-1.02983210010881,1.3926889251602
1730865006387,-35.5671,-42.4234,65.5491,0.0341,-3.802,5.6348,0.0069,0.7751,1.1488,-0.25850536815379,0.799567899891186,0.579888925160198
1730865006407,-30.2137,-57.0928,86.0655,1.322,-5.5229,9.0807,0.0197,0.9257,1.7736,-0.24570536815379,0.950167899891186,1.2046889251602
1730865006426,-32.9652,-33.1446,77.2727,1.1154,-3.2871,8.1328,0.2274,0.6701,1.658,-0.0380053681537904,0.694567899891186,1.0890889251602
1730865006447,-23.2528,-37.8924,94.118,0.7891,-4.1535,9.0208,0.1608,0.8468,1.8391,-0.10460536815379,0.871267899891186,1.2701889251602
1730865006467,-24.2771,-31.3502,66.237,0.3879,-3.3194,8.8939,0.0289,0.7301,1.8057,-0.23650536815379,0.754567899891186,1.2367889251602
1730865006487,-18.4976,-10.2731,41.5261,0.9484,-3.729,8.8322,0.1933,0.7602,1.8006,-0.0721053681537904,0.784667899891186,1.2316889251602
1730865006507,-19.2453,-9.2787,36.24,1.8639,-3.6158,9.0831,0.38,0.7371,1.8518,0.11459463184621,0.761567899891186,1.2828889251602
1730865006517,-19.1481,-16.1723,41.9224,1.7974,-3.3751,9.222,0.3664,0.6881,1.8801,0.10099463184621,0.712567899891186,1.3111889251602
1730865006537,-13.3386,-29.952,50.3637,1.1729,-3.1476,9.0771,0.2391,0.6417,1.8505,-0.0263053681537904,0.666167899891186,1.2815889251602
1730865006557,-8.7927,-27.8735,43.2981,1.3004,-3.3817,8.7478,0.2651,0.6894,1.7834,-0.000305368153790397,0.713867899891186,1.2144889251602
1730865006567,-8.217,-28.2324,41.9897,1.1975,-3.4907,8.5508,0.2441,0.7116,1.7432,-0.0213053681537904,0.736067899891186,1.1742889251602
1730865006577,-8.0151,-27.9034,42.5804,1.0178,-3.6649,8.2741,0.121,0.7716,1.6883,-0.14440536815379,0.796067899891186,1.1193889251602
1730865006587,-13.2264,-29.5932,41.4888,0.5939,-3.55,8.5172,0.0489,0.7237,1.7364,-0.21650536815379,0.748167899891186,1.1674889251602
1730865006605,-12.3068,-21.1145,44.8234,0.9119,-3.226,8.6891,0.1859,0.6577,1.7714,-0.0795053681537904,0.682167899891186,1.2024889251602
1730865006626,-9.4805,-30.0343,45.7879,1.5388,-3.462,8.7981,0.3137,0.7058,1.7937,0.0482946318462096,0.730267899891186,1.2247889251602
1730865006636,-10.5722,-39.4027,47.4851,1.2136,-3.544,8.8232,0.213,0.6704,1.7901,-0.0524053681537904,0.694867899891186,1.2211889251602
1730865006656,-12.2021,-47.6123,40.1803,0.9059,-3.1889,8.7531,0.1846,0.6501,1.7845,-0.0808053681537904,0.674567899891186,1.2155889251602
1730865006676,-8.845,-46.2814,41.1074,1.0711,-2.8428,9.1741,0.2183,0.5795,1.8703,-0.0471053681537904,0.603967899891186,1.3013889251602
1730865006686,-6.0263,-45.915,44.0682,1.0274,-2.8584,9.1375,0.2094,0.5827,1.8629,-0.0560053681537904,0.607167899891186,1.2939889251602
1730865006695,-2.2579,-50.102,45.7954,1.0208,-2.789,9.5279,0.255,0.5356,1.9847,-0.0104053681537904,0.560067899891186,1.4157889251602
1730865006705,0.5084,-52.1582,49.7805,1.4328,-2.7512,9.4297,0.2921,0.5609,1.9224,0.0266946318462096,0.585367899891186,1.3534889251602
1730865006716,2.9533,-57.8106,50.0048,1.3178,-3.1165,8.8639,0.2686,0.6353,1.8071,0.00319463184620961,0.659767899891186,1.2381889251602
1730865006726,2.3103,-64.4276,44.9729,1.0406,-3.4835,8.7304,0.2121,0.7102,1.7799,-0.0533053681537904,0.734667899891186,1.2109889251602
1730865006736,0.0074,-70.581,42.4234,0.7143,-3.4907,8.8765,0.1456,0.7116,1.8096,-0.11980536815379,0.736067899891186,1.2406889251602
1730865006746,-1.2934,-74.1699,48.0982,0.1323,-3.5104,8.8705,0.1107,0.6901,1.8358,-0.15470536815379,0.714567899891186,1.2668889251602
1730865006756,-2.6168,-69.1305,47.4104,0.543,-3.0787,8.9436,0.1751,0.6452,1.8233,-0.0903053681537904,0.669667899891186,1.2543889251602
1730865006766,0.9719,-57.9302,37.4662,0.7484,-3.1925,8.8933,0.1525,0.6508,1.8131,-0.11290536815379,0.675267899891186,1.2441889251602
1730865006776,0.8747,-48.3749,27.1333,0.5664,-3.3973,8.9424,0.1154,0.6926,1.8231,-0.15000536815379,0.717067899891186,1.2541889251602
1730865006786,0.2915,-42.7299,20.0453,0.4634,-3.3117,9.292,0.0944,0.6751,1.8944,-0.17100536815379,0.699567899891186,1.3254889251602
1730865006796,0.9944,-38.8719,18.4527,0.2365,-2.871,9.6339,0.0482,0.5853,1.9641,-0.21720536815379,0.609767899891186,1.3951889251602
1730865006806,1.0243,-35.8363,19.1854,0.1347,-2.562,9.5776,0.0886,0.5709,1.9125,-0.17680536815379,0.595367899891186,1.3435889251602
1730865006816,9.5553,-40.5168,17.8022,0.3592,-3.2739,9.1124,0.0732,0.6674,1.8577,-0.19220536815379,0.691867899891186,1.2887889251602
1730865006826,9.4282,-45.3393,16.9125,0.1682,-3.52,8.9154,0.0343,0.7176,1.8176,-0.23110536815379,0.742067899891186,1.2486889251602
1730865006836,7.7758,-47.6721,18.6247,0.0359,-3.547,8.8693,0.0073,0.7231,1.8082,-0.25810536815379,0.747567899891186,1.2392889251602
1730865006846,6.3702,-49.0328,20.2995,0.0664,-3.2386,9.0585,0.0135,0.6602,1.8468,-0.25190536815379,0.684667899891186,1.2778889251602
1730865006856,7.6861,-49.0777,24.4192,0.2862,-3.1548,8.9316,0.0583,0.6431,1.8209,-0.20710536815379,0.667567899891186,1.2519889251602
1730865006866,10.6843,-56.9209,26.6323,0.3071,-3.3242,8.9465,0.0057,0.7104,1.8245,-0.25970536815379,0.734867899891186,1.2555889251602
1730865006875,9.5179,-59.9266,24.2622,0.4149,-3.6488,8.9483,0.0845,0.7438,1.8243,-0.18090536815379,0.768267899891186,1.2553889251602
1730865006884,8.2394,-59.5901,21.5705,0.8675,-3.6194,8.8968,0.1768,0.7379,1.8138,-0.0886053681537904,0.762367899891186,1.2448889251602
1730865006895,6.9459,-56.547,17.8471,-1.1292,-3.5248,8.8202,0.2302,0.7186,1.7982,-0.0352053681537904,0.743067899891186,1.2292889251602
1730865006905,6.5496,-52.1357,14.4601,-1.2729,-3.5566,8.84,0.2595,0.725,1.8022,-0.00590536815379039,0.749467899891186,1.2332889251602
1730865006915,6.3926,-47.3954,10.9684,-1.3232,-3.5595,8.8879,0.2619,0.7038,1.8205,-0.00350536815379038,0.728267899891186,1.2515889251602
1730865006925,5.8917,-38.4307,4.3963,-1.2849,-3.4524,8.8597,0.2531,0.7036,1.8062,-0.0123053681537904,0.728067899891186,1.2372889251602
1730865006935,5.8393,-36.0382,0.4785,-1.3304,-3.5667,8.8687,0.2712,0.7271,1.8081,0.0057946318462096,0.751567899891186,1.2391889251602
1730865006945,4.815,-35.8886,-3.7234,-1.4855,-3.5542,9.0435,0.3028,0.7246,1.8437,0.0373946318462096,0.749067899891186,1.2747889251602
1730865006955,3.5514,-35.3952,-4.0972,-1.4807,-3.4799,9.0705,0.3018,0.7094,1.8492,0.0363946318462096,0.733867899891186,1.2802889251602
1730865006965,3.1851,-34.9615,-4.4262,-1.3843,-3.4757,8.9537,0.2822,0.7086,1.8254,0.0167946318462096,0.733067899891186,1.2564889251602
1730865006974,4.0898,-35.2381,-3.7458,-1.331,-3.5584,8.8442,0.2834,0.7211,1.7764,0.0179946318462096,0.745567899891186,1.2074889251602
1730865006984,6.8338,-33.182,0.8448,-1.4693,-3.7362,8.7238,0.2995,0.7617,1.7785,0.0340946318462096,0.786167899891186,1.2095889251602
1730865006995,6.1309,-33.197,0.5532,-1.4082,-3.7949,8.7921,0.2871,0.7736,1.7924,0.0216946318462096,0.798067899891186,1.2234889251602
1730865007005,3.7982,-33.982,-1.9738,-1.1478,-3.6284,8.6603,0.234,0.7397,1.7656,-0.0314053681537904,0.764167899891186,1.1966889251602
1730865007015,3.1327,-37.3765,1.9514,0.9777,-3.7643,8.4544,0.1993,0.7674,1.7236,-0.0661053681537904,0.791867899891186,1.1546889251602
1730865007025,2.3028,-46.9393,7.2973,-1.398,-4.0505,8.4891,0.285,0.8258,1.7307,0.0195946318462096,0.850267899891186,1.1617889251602
1730865007035,-2.7365,-55.4853,17.3013,-2.0088,-4.0511,8.3723,0.5128,0.7968,1.7111,0.24739463184621,0.821267899891186,1.1421889251602
1730865007055,-2.729,-44.2626,14.3479,-2.3932,-3.6685,8.5376,0.4879,0.7479,1.7406,0.22249463184621,0.772367899891186,1.1716889251602
1730865007075,0.1345,-38.184,10.7366,-1.8681,-3.7889,8.5316,0.3808,0.7724,1.7393,0.11539463184621,0.796867899891186,1.1703889251602
1730865007085,0.9196,-40.0308,13.6825,-1.9878,-3.9272,8.4969,0.499,0.8344,1.7475,0.23359463184621,0.858867899891186,1.1785889251602
1730865007095,-2.3327,-42.7075,15.0134,-2.3968,-4.093,8.5717,0.5108,0.7912,1.7369,0.24539463184621,0.815667899891186,1.1679889251602
1730865007115,-4.0823,-39.3803,12.3217,-2.686,-3.8272,8.6867,0.5476,0.7802,1.7709,0.28219463184621,0.804667899891186,1.2019889251602
1730865007134,-3.7907,-32.0231,11.0881,-2.8363,-3.6769,8.6088,0.5782,0.7496,1.7551,0.31279463184621,0.774067899891186,1.1861889251602
1730865007155,-1.7271,-31.896,9.0992,-2.3926,-3.8811,8.5915,0.4877,0.7912,1.7515,0.22229463184621,0.815667899891186,1.1825889251602
1730865007165,-2.9533,-34.6101,13.3909,-2.7027,-3.7104,8.5795,0.551,0.7564,1.7491,0.28559463184621,0.780867899891186,1.1801889251602
1730865007185,-3.3645,-31.6493,13.8021,-3.2638,-3.9787,8.4202,0.6654,0.8111,1.7166,0.39999463184621,0.835567899891186,1.1476889251602
1730865007205,-5.6524,-19.3798,11.5217,-2.8991,-3.8889,8.3196,0.572,0.8082,1.6961,0.30659463184621,0.832667899891186,1.1271889251602
1730865007224,-6.4375,-21.3014,17.5779,-2.8883,-3.8416,8.5298,0.5888,0.7832,1.739,0.32339463184621,0.807667899891186,1.1700889251602
1730865007244,-4.0823,-22.2509,22.0565,-2.8051,-3.6368,8.5059,0.5718,0.7414,1.7341,0.30639463184621,0.765867899891186,1.1651889251602
1730865007264,0.2467,-25.2865,20.0677,-2.4656,-3.9032,8.3681,0.4973,0.7938,1.7172,0.23189463184621,0.818267899891186,1.1482889251602
1730865007274,0.2467,-28.8529,24.5687,-2.6255,-3.9559,8.4633,0.5352,0.8065,1.7254,0.26979463184621,0.830967899891186,1.1564889251602
1730865007284,1.1962,-29.5857,26.0791,-2.8518,-3.9841,8.3286,0.5814,0.8122,1.6979,0.31599463184621,0.836667899891186,1.1289889251602
1730865007294,0.9944,-25.4959,24.337,-3.0584,-4.3888,8.134,0.6235,0.8947,1.6583,0.35809463184621,0.919167899891186,1.0893889251602
1730865007304,-2.4822,-20.1649,22.0341,-3.0165,-4.09,8.5472,0.6149,0.8338,1.7425,0.34949463184621,0.858267899891186,1.1735889251602
1730865007324,5.0019,-18.4153,16.8901,-2.7848,-4.0595,8.3891,0.5677,0.8276,1.7103,0.30229463184621,0.852067899891186,1.1413889251602
1730865007334,5.787,-19.8583,16.1274,-2.5542,-4.2343,8.0993,0.5207,0.8632,1.6512,0.25529463184621,0.887667899891186,1.0822889251602
1730865007344,5.2487,-23.2678,16.3592,-2.4399,-4.2421,7.9502,0.4974,0.8648,1.6208,0.23199463184621,0.889267899891186,1.0518889251602
1730865007354,3.7683,-28.5539,15.0732,-2.8901,-4.4295,8.0748,0.5892,0.903,1.6462,0.32379463184621,0.927467899891186,1.0772889251602
1730865007364,1.0617,-30.3707,14.2881,-3.7464,-4.4744,8.2706,0.7637,0.9122,1.6861,0.49829463184621,0.936667899891186,1.1171889251602
1730865007374,-1.4878,-14.9984,9.5478,-4.2026,-4.0314,8.4849,0.8002,0.778,1.7553,0.53479463184621,0.802467899891186,1.1863889251602
1730865007384,3.2225,-5.3608,2.9832,-3.171,-4.0553,8.4633,0.6464,0.8267,1.7254,0.38099463184621,0.851167899891186,1.1564889251602
1730865007394,5.5328,-5.5552,0.2018,-2.8261,-4.5247,8.3089,0.5761,0.9224,1.6939,0.31069463184621,0.946867899891186,1.1249889251602
1730865007404,3.9028,-11.9329,1.6748,-3.2512,-4.6798,8.2406,0.6628,0.9541,1.68,0.39739463184621,0.978567899891186,1.1110889251602
1730865007414,0.0074,-13.5479,2.8935,-3.7667,-4.4188,8.2723,0.7679,0.9008,1.6865,0.50249463184621,0.925267899891186,1.1175889251602
1730865007424,0.8897,-7.6637,1.4205,-3.9062,-4.1727,8.3346,0.7963,0.8507,1.7004,0.53089463184621,0.875167899891186,1.1314889251602
1730865007433,2.4673,7.4394,-7.4169,-3.7116,-4.2152,8.3406,0.6931,0.9016,1.6804,0.42769463184621,0.926067899891186,1.1114889251602
1730865007444,2.0785,12.3516,-10.2207,-3.1943,-4.6086,8.0718,0.6512,0.9395,1.6456,0.38579463184621,0.963967899891186,1.0766889251602
1730865007454,0.2093,15.133,-13.1816,-3.144,-4.6882,7.9796,0.6409,0.9558,1.6268,0.37549463184621,0.980267899891186,1.0578889251602
1730865007464,-1.772,17.6153,-14.6321,-3.1895,-4.6487,8.0197,0.6502,0.9477,1.635,0.38479463184621,0.972167899891186,1.0660889251602
1730865007484,-6.5197,21.4733,-16.1648,-3.8625,-4.3337,8.2574,0.7546,0.8394,1.711,0.48919463184621,0.863867899891186,1.1420889251602
1730865007503,-4.3814,42.6028,-20.0004,-2.9979,-4.2008,8.5071,0.6112,0.8564,1.7343,0.34579463184621,0.880867899891186,1.1653889251602
1730865007523,-6.7216,42.7374,-22.4005,-2.8548,-4.5379,8.5238,0.582,0.9251,1.7377,0.31659463184621,0.949567899891186,1.1687889251602
1730865007543,-13.1292,53.2946,-27.8062,-3.362,-4.3098,8.2316,0.6932,0.8443,1.718,0.42779463184621,0.868767899891186,1.1490889251602
1730865007563,-15.1779,74.7531,-38.0943,-2.5842,-4.2601,8.3412,0.5268,0.8685,1.7005,0.26139463184621,0.892967899891186,1.1315889251602
1730865007583,-20.8528,82.4766,-43.971,-3.4332,-4.7834,8.2843,0.6999,0.9752,1.6889,0.43449463184621,0.999667899891186,1.1199889251602
1730865007603,-32.3147,109.4754,-41.1149,-3.5206,-5.0391,8.0239,0.5957,0.9554,1.6777,0.33029463184621,0.979867899891186,1.1087889251602
1730865007623,-40.7785,124.9897,-41.6981,-2.0243,-3.8541,8.325,0.4127,0.7857,1.6972,0.14729463184621,0.810167899891186,1.1282889251602
1730865007643,-35.4101,140.1452,-43.0664,0.5658,-3.5955,8.5562,0.1153,0.733,1.7443,-0.15010536815379,0.757467899891186,1.1753889251602
1730865007663,-24.8902,110.0436,-25.3463,0.3424,-2.5572,9.9477,0.0749,0.5213,2.028,-0.19050536815379,0.545767899891186,1.4590889251602
1730865007683,-13.3087,80.3981,-21.593,0.5496,-3.1051,9.4142,0.112,0.633,1.9193,-0.15340536815379,0.657467899891186,1.3503889251602
1730865007702,-8.7104,56.061,-14.2507,0.161,-3.5721,9.0525,0.0328,0.7282,1.8455,-0.23260536815379,0.752667899891186,1.2765889251602
1730865007712,-8.7403,48.7039,-8.703,0.1466,-3.7541,9.2172,0.0618,0.8041,1.8094,-0.20360536815379,0.828567899891186,1.2404889251602
1730865007723,-11.5068,53.8629,-11.1628,0.0353,-3.902,8.6921,0.0072,0.7955,1.772,-0.25820536815379,0.819967899891186,1.2030889251602
1730865007743,-16.8302,56.3676,-13.1591,0.4472,-3.523,8.7214,0.0911,0.7182,1.778,-0.17430536815379,0.742667899891186,1.2090889251602
1730865007763,-16.3742,52.6815,-11.5292,0.6927,-3.2039,8.743,0.1412,0.6531,1.7824,-0.12420536815379,0.677567899891186,1.2134889251602
1730865007783,-16.0751,42.5654,-3.2823,0.0766,-3.7362,8.9531,0.0156,0.7617,1.8253,-0.24980536815379,0.786167899891186,1.2563889251602
1730865007793,-18.6172,46.715,-1.6075,0.3646,-3.0662,8.7537,0.0743,0.6251,1.7846,-0.19110536815379,0.649567899891186,1.2156889251602
1730865007802,-16.6209,49.2422,-1.1813,0.8382,-2.8782,8.5849,0.1708,0.5867,1.7502,-0.0946053681537904,0.611167899891186,1.1812889251602
1730865007812,-11.5367,48.7338,-2.3851,1.2651,-3.2931,8.4418,0.2579,0.6713,1.721,-0.00750536815379038,0.695767899891186,1.1520889251602
1730865007822,-10.8937,46.0272,-2.8187,1.2639,-3.7565,8.6214,0.1605,0.7454,1.7902,-0.10490536815379,0.769867899891186,1.2212889251602
1730865007832,-18.505,42.2215,3.2748,0.7873,-3.1596,8.7789,0.104,0.6441,1.7897,-0.16140536815379,0.668567899891186,1.2207889251602
1730865007842,-17.9966,47.2908,1.2112,0.4526,-2.9356,8.9304,0.0922,0.5985,1.8206,-0.17320536815379,0.622967899891186,1.2516889251602
1730865007852,-17.6228,54.3339,-11.7909,0.6251,-2.9865,8.9406,0.1274,0.6088,1.8227,-0.13800536815379,0.633267899891186,1.2537889251602
1730865007872,-16.105,63.7995,-33.997,1.4489,-4.2439,8.6262,0.2954,0.8652,1.7586,0.0299946318462096,0.889667899891186,1.1896889251602
1730865007892,-27.223,45.1972,-8.4936,1.6735,-2.2878,9.3339,0.3411,0.4664,1.9029,0.0756946318462096,0.490867899891186,1.3339889251602
1730865007902,-21.092,38.999,-12.6881,1.5603,-2.7117,9.4393,0.3181,0.5528,1.9244,0.0526946318462096,0.577267899891186,1.3554889251602
1730865007922,-18.3705,28.9427,-17.3686,1.5645,-2.8776,9.492,0.3189,0.5866,1.9351,0.0534946318462096,0.611067899891186,1.3661889251602
1730865007942,-13.8395,30.1913,-11.2825,1.9064,-2.8859,8.74,0.4284,0.6351,1.7569,0.16299463184621,0.659567899891186,1.1879889251602
1730865007962,-17.1966,23.2229,-5.4954,1.5106,-3.0344,8.9244,0.3079,0.6186,1.8194,0.0424946318462096,0.643067899891186,1.2504889251602
1730865007972,-18.677,27.4024,-2.8262,1.4687,-2.7488,9.0627,0.2994,0.5604,1.8476,0.0339946318462096,0.584867899891186,1.2786889251602
1730865007982,-18.6396,32.8829,-5.1066,1.4891,-2.7141,9.1519,0.3035,0.5533,1.8658,0.0380946318462096,0.577767899891186,1.2968889251602
1730865007992,-18.3331,40.0009,-9.159,1.6513,-2.8626,8.8705,0.4278,0.5739,1.7479,0.16239463184621,0.598367899891186,1.1789889251602
1730865008002,-19.8135,50.259,-16.6882,2.0986,-2.8153,8.5238,0.491,0.5744,1.7377,0.22559463184621,0.598867899891186,1.1687889251602
1730865008022,-21.2191,45.444,-13.533,1.5417,-2.7339,9.0268,0.3143,0.5573,1.8403,0.0488946318462096,0.581767899891186,1.2713889251602
1730865008042,-21.6603,60.4574,-20.0827,1.5525,-2.9889,8.7172,0.3165,0.6093,1.7772,0.0510946318462096,0.633767899891186,1.2082889251602
1730865008062,-32.4194,81.6841,-19.1181,2.865,-2.6602,8.2688,0.5841,0.5423,1.6857,0.31869463184621,0.566767899891186,1.1167889251602
1730865008082,-38.5279,79.0223,-27.4548,2.2333,-3.0997,8.6675,0.4553,0.6319,1.767,0.18989463184621,0.656367899891186,1.1980889251602
1730865008101,-46.1991,88.7945,-19.7238,2.6315,-2.2573,8.5861,0.5364,0.4602,1.7504,0.27099463184621,0.484667899891186,1.1814889251602
1730865008121,-44.5767,84.757,-23.9407,4.1427,-2.5806,8.1197,0.8446,0.5261,1.6553,0.57919463184621,0.550567899891186,1.0863889251602
1730865008141,-45.1,78.2148,-6.4898,3.4931,-2.1597,7.9454,0.7121,0.4403,1.6198,0.44669463184621,0.464767899891186,1.0508889251602
1730865008151,-44.5019,85.1982,-9.3011,3.4973,-2.107,7.8239,0.713,0.4295,1.595,0.44759463184621,0.453967899891186,1.0260889251602
1730865008161,-44.001,93.8488,-16.3368,3.6877,-2.1363,7.8406,0.8151,0.431,1.5941,0.54969463184621,0.455467899891186,1.0251889251602
1730865008181,-44.3374,110.2305,-15.8583,4.1727,-2.5267,7.4089,0.8507,0.5151,1.5104,0.58529463184621,0.539567899891186,0.941488925160198
1730865008201,-51.8965,111.853,-16.9873,5.1265,-1.8633,7.4676,1.0451,0.3798,1.5224,0.779694631846209,0.404267899891186,0.953488925160198
1730865008221,-44.3748,91.9721,-16.763,5.9947,0.767,7.4095,1.2811,0.2281,1.5063,1.01569463184621,0.252567899891186,0.937388925160198
1730865008231,-28.6361,62.3266,-19.6864,6.4934,-1.4364,7.1814,1.3238,0.2928,1.4641,1.05839463184621,0.317267899891186,0.895188925160198
1730865008251,-25.4061,36.8232,-6.0337,6.4611,-2.0561,6.9617,1.3172,0.4191,1.4193,1.05179463184621,0.443567899891186,0.850388925160198
1730865008261,-29.0324,25.8697,2.7589,5.9318,-1.9567,7.0916,1.2093,0.3989,1.4458,0.94389463184621,0.423367899891186,0.876888925160198
1730865008271,-32.868,23.0061,12.5311,5.53,-1.8136,7.2682,1.1274,0.3697,1.4818,0.86199463184621,0.394167899891186,0.912888925160198
1730865008281,-45.8103,30.3932,8.688,5.5097,-1.7944,7.194,1.1098,0.3544,1.4763,0.844394631846209,0.378867899891186,0.907388925160198
1730865008291,-50.6703,34.2961,5.5477,5.3402,-1.5441,7.4323,1.0887,0.3148,1.5152,0.82329463184621,0.339267899891186,0.946288925160198
1730865008301,-55.418,41.7729,3.8505,5.3684,0.9214,7.7071,1.0944,0.1878,1.5712,0.82899463184621,0.212267899891186,1.0022889251602
1730865008311,-55.8442,50.1469,1.7047,5.2462,0.6322,7.7909,1.0695,0.1289,1.5883,0.804094631846209,0.153367899891186,1.0193889251602
1730865008320,-52.2778,57.5639,-4.501,5.2594,0.3634,7.6323,1.0722,0.074,1.556,0.80679463184621,0.0984678998911862,0.987088925160198
1730865008330,-46.4533,64.9061,-13.4059,5.633,0.3065,7.3658,1.1484,0.1624,1.4665,0.88299463184621,0.186867899891186,0.897588925160198
1730865008341,-34.3559,66.2071,-29.4287,5.6516,0.7969,7.103,1.2181,0.2105,1.4481,0.95269463184621,0.234967899891186,0.879188925160198
1730865008351,-32.6661,67.4333,-27.208,6.5976,0.6292,6.8503,1.345,0.1282,1.3966,1.07959463184621,0.152667899891186,0.827688925160198
1730865008360,-27.9707,62.0799,-22.9238,6.7814,0.7879,6.6862,1.3825,0.1606,1.3631,1.11709463184621,0.185067899891186,0.794188925160198
1730865008371,-24.0229,52.7713,-21.3761,6.5366,-1.1017,6.8305,1.3326,0.2246,1.3925,1.06719463184621,0.249067899891186,0.823588925160198
1730865008390,-21.7201,49.4067,-13.2189,6.1096,0.6676,6.594,1.3312,0.1539,1.2766,1.06579463184621,0.178367899891186,0.707688925160198
1730865008401,-15.1405,57.3321,-28.18,7.0766,-1.1196,6.0546,1.4427,0.2282,1.2343,1.17729463184621,0.252667899891186,0.665388925160198
1730865008419,-13.6676,45.9748,-18.0639,7.5976,0.858,6.3743,1.5489,0.1749,1.2995,1.28349463184621,0.199367899891186,0.730588925160198
1730865008429,-12.7928,38.3784,-12.4114,7.2078,0.4831,6.6593,1.4694,0.0985,1.3576,1.20399463184621,0.122967899891186,0.788688925160198
1730865008440,-10.7441,33.982,-12.2993,6.4348,0.5646,6.821,1.3118,0.1151,1.3906,1.04639463184621,0.139567899891186,0.821688925160198
1730865008450,-6.6543,48.9581,-16.6583,6.4288,0.6065,6.7371,1.432,0.1137,1.3388,1.16659463184621,0.138167899891186,0.769888925160198
1730865008460,-4.5234,51.3507,-15.3424,7.3676,0.7723,6.409,1.502,0.1574,1.3066,1.23659463184621,0.181867899891186,0.737688925160198
1730865008470,-2.0336,49.8852,-11.2451,7.4778,-1.0448,5.8821,1.5245,0.213,1.1992,1.25909463184621,0.237467899891186,0.630288925160198
1730865008480,-2.4374,46.9319,-12.3666,6.7731,-1.8399,5.633,1.3808,0.3751,1.1484,1.11539463184621,0.399567899891186,0.579488925160198
1730865008490,-8.3515,46.8122,-11.4843,5.6049,-2.1351,6.0324,1.1427,0.4353,1.2298,0.87729463184621,0.459767899891186,0.660888925160198
1730865008500,-16.0227,59.4107,-4.7702,5.3085,-1.4663,6.1438,1.176,0.1986,1.2424,0.910594631846209,0.223067899891186,0.673488925160198
1730865008509,-20.4042,89.4898,-19.2079,5.8109,0.9741,6.0402,1.3199,0.1811,1.2314,1.05449463184621,0.205567899891186,0.662488925160198
1730865008519,-18.7966,98.4994,-20.3593,6.8976,0.6724,5.7354,1.4062,0.137,1.1693,1.14079463184621,0.161467899891186,0.600388925160198
1730865008530,-13.8919,103.7481,-12.4638,7.4401,0.5562,5.5145,1.5168,0.1134,1.1242,1.25139463184621,0.137867899891186,0.555288925160198
1730865008550,-7.6263,103.3145,-8.9198,8.4322,0.7191,5.3349,1.7191,0.1466,1.0876,1.45369463184621,0.171067899891186,0.518688925160198
1730865008560,-5.6375,98.5443,-3.5365,7.7856,-1.4861,4.611,1.4002,0.4266,0.955,1.13479463184621,0.451067899891186,0.386088925160198
1730865008570,-18.4527,100.9144,-6.4674,6.5719,-1.8166,4.4403,1.3398,0.3703,0.9052,1.07439463184621,0.394767899891186,0.336288925160198
1730865008590,-33.7503,128.2496,-25.137,6.9527,-2.207,4.002,1.4174,0.4499,0.8159,1.15199463184621,0.474367899891186,0.246988925160198
1730865008610,-51.6273,152.0034,-25.5931,8.3532,-1.1334,4.0936,1.703,0.231,0.8345,1.43759463184621,0.255467899891186,0.265588925160198
1730865008630,-40.0009,142.1939,-17.9891,9.5291,0.4173,3.7068,1.9427,0.085,0.7557,1.67729463184621,0.109467899891186,0.186788925160198
1730865008650,-28.7557,123.9878,-17.9667,9.3309,-1.1855,2.6764,1.9023,0.2416,0.5456,1.63689463184621,0.266067899891186,-0.0233110748398022
1730865008670,-25.3688,120.2345,-5.5104,8.3556,-1.2639,2.08,1.7034,0.2457,0.2934,1.43799463184621,0.270167899891186,-0.275511074839802
1730865008690,-30.0791,135.0834,-9.2189,9.3142,-1.7573,1.2011,1.8989,0.3582,0.2448,1.63349463184621,0.382667899891186,-0.324111074839802
1730865008709,-33.5185,123.9505,-12.6731,9.7034,-1.0669,0.8238,1.9782,0.2175,0.1679,1.71279463184621,0.241967899891186,-0.401011074839802
1730865008730,-34.5877,113.8418,-19.7911,8.8998,-1.883,0.3394,1.7961,0.3287,0.0909,1.53069463184621,0.353167899891186,-0.478011074839802
1730865008750,-40.7411,123.6589,-22.4304,9.707,0.8681,0.5879,1.979,0.177,0.1198,1.71359463184621,0.201467899891186,-0.449111074839802
1730865008770,-32.5988,114.1484,-15.5143,9.807,0.8825,0.1802,1.9993,0.1799,0.0367,1.73389463184621,0.204367899891186,-0.532211074839802
